{"0":{"115":{"rt":16658,"trial_type":"AJDinstructions","view_history":"[{\"page_index\":0,\"viewing_time\":2825},{\"page_index\":1,\"viewing_time\":1146},{\"page_index\":2,\"viewing_time\":12686}]","internal_node_id":"0.0-0.0","time_elapsed":16658,"trial_index":0},"116":{"rt":88574,"trial_type":"AJDinstructions","view_history":"[{\"page_index\":0,\"viewing_time\":14409},{\"page_index\":1,\"viewing_time\":43307},{\"page_index\":2,\"viewing_time\":30856}]","internal_node_id":"0.0-0.0","time_elapsed":88577,"trial_index":0},"117":{"rt":34764,"trial_type":"AJDinstructions","view_history":"[{\"page_index\":0,\"viewing_time\":13015},{\"page_index\":1,\"viewing_time\":3453},{\"page_index\":2,\"viewing_time\":18296}]","internal_node_id":"0.0-0.0","time_elapsed":34766,"trial_index":0},"118":{"rt":119013,"trial_type":"AJDinstructions","view_history":"[{\"page_index\":0,\"viewing_time\":4874},{\"page_index\":1,\"viewing_time\":53332},{\"page_index\":2,\"viewing_time\":60806}]","internal_node_id":"0.0-0.0","time_elapsed":119013,"trial_index":0},"119":{"rt":1427257,"trial_type":"AJDinstructions","view_history":"[{\"page_index\":0,\"viewing_time\":3985},{\"page_index\":1,\"viewing_time\":5869},{\"page_index\":2,\"viewing_time\":1417402}]","internal_node_id":"0.0-0.0","time_elapsed":1427257,"trial_index":0},"120":{"rt":91089,"trial_type":"AJDinstructions","view_history":"[{\"page_index\":0,\"viewing_time\":37132},{\"page_index\":1,\"viewing_time\":10511},{\"page_index\":2,\"viewing_time\":43446}]","internal_node_id":"0.0-0.0","time_elapsed":91092,"trial_index":0},"121":{"rt":53878,"trial_type":"AJDinstructions","view_history":"[{\"page_index\":0,\"viewing_time\":5645},{\"page_index\":1,\"viewing_time\":9889},{\"page_index\":2,\"viewing_time\":38344}]","internal_node_id":"0.0-0.0","time_elapsed":53879,"trial_index":0},"123":{"rt":126546,"trial_type":"AJDinstructions","view_history":"[{\"page_index\":0,\"viewing_time\":65356},{\"page_index\":1,\"viewing_time\":5418},{\"page_index\":2,\"viewing_time\":55771}]","internal_node_id":"0.0-0.0","time_elapsed":126548,"trial_index":0},"124":{"rt":38004,"trial_type":"AJDinstructions","view_history":"[{\"page_index\":0,\"viewing_time\":5265},{\"page_index\":1,\"viewing_time\":28770},{\"page_index\":2,\"viewing_time\":3969}]","internal_node_id":"0.0-0.0","time_elapsed":38006,"trial_index":0},"125":{"rt":17895,"trial_type":"AJDinstructions","view_history":"[{\"page_index\":0,\"viewing_time\":6145},{\"page_index\":1,\"viewing_time\":3782},{\"page_index\":2,\"viewing_time\":7967}]","internal_node_id":"0.0-0.0","time_elapsed":17898,"trial_index":0},"126":{"rt":116904,"trial_type":"AJDinstructions","view_history":"[{\"page_index\":0,\"viewing_time\":9648},{\"page_index\":1,\"viewing_time\":10125},{\"page_index\":2,\"viewing_time\":97130}]","internal_node_id":"0.0-0.0","time_elapsed":116906,"trial_index":0},"127":{"rt":220456,"trial_type":"AJDinstructions","view_history":"[{\"page_index\":0,\"viewing_time\":83724},{\"page_index\":1,\"viewing_time\":121905},{\"page_index\":2,\"viewing_time\":5292},{\"page_index\":1,\"viewing_time\":8688},{\"page_index\":2,\"viewing_time\":845}]","internal_node_id":"0.0-0.0","time_elapsed":220457,"trial_index":0},"128":{"rt":23691,"trial_type":"AJDinstructions","view_history":"[{\"page_index\":0,\"viewing_time\":1749},{\"page_index\":1,\"viewing_time\":12619},{\"page_index\":2,\"viewing_time\":9322}]","internal_node_id":"0.0-0.0","time_elapsed":23692,"trial_index":0},"129":{"rt":76968,"trial_type":"AJDinstructions","view_history":"[{\"page_index\":0,\"viewing_time\":3024},{\"page_index\":1,\"viewing_time\":8983},{\"page_index\":2,\"viewing_time\":64960}]","internal_node_id":"0.0-0.0","time_elapsed":76969,"trial_index":0},"130":{"rt":23188,"trial_type":"AJDinstructions","view_history":"[{\"page_index\":0,\"viewing_time\":1912},{\"page_index\":1,\"viewing_time\":3980},{\"page_index\":2,\"viewing_time\":17294}]","internal_node_id":"0.0-0.0","time_elapsed":23190,"trial_index":0},"131":{"rt":71469,"trial_type":"AJDinstructions","view_history":"[{\"page_index\":0,\"viewing_time\":12612},{\"page_index\":1,\"viewing_time\":12969},{\"page_index\":2,\"viewing_time\":45887}]","internal_node_id":"0.0-0.0","time_elapsed":71470,"trial_index":0},"132":{"rt":49124,"trial_type":"AJDinstructions","view_history":"[{\"page_index\":0,\"viewing_time\":6746},{\"page_index\":1,\"viewing_time\":9162},{\"page_index\":2,\"viewing_time\":33216}]","internal_node_id":"0.0-0.0","time_elapsed":49125,"trial_index":0},"133":{"rt":42705,"trial_type":"AJDinstructions","view_history":"[{\"page_index\":0,\"viewing_time\":4729},{\"page_index\":1,\"viewing_time\":23096},{\"page_index\":2,\"viewing_time\":14880}]","internal_node_id":"0.0-0.0","time_elapsed":42707,"trial_index":0},"134":{"rt":98130,"trial_type":"AJDinstructions","view_history":"[{\"page_index\":0,\"viewing_time\":2578},{\"page_index\":1,\"viewing_time\":23116},{\"page_index\":2,\"viewing_time\":72435}]","internal_node_id":"0.0-0.0","time_elapsed":98131,"trial_index":0},"135":{"rt":111517,"trial_type":"AJDinstructions","view_history":"[{\"page_index\":0,\"viewing_time\":16857},{\"page_index\":1,\"viewing_time\":20217},{\"page_index\":2,\"viewing_time\":74442}]","internal_node_id":"0.0-0.0","time_elapsed":111519,"trial_index":0},"136":{"rt":577045,"trial_type":"AJDinstructions","view_history":"[{\"page_index\":0,\"viewing_time\":6482},{\"page_index\":1,\"viewing_time\":54736},{\"page_index\":2,\"viewing_time\":515822}]","internal_node_id":"0.0-0.0","time_elapsed":577048,"trial_index":0},"137":{"rt":19209,"trial_type":"AJDinstructions","view_history":"[{\"page_index\":0,\"viewing_time\":5918},{\"page_index\":1,\"viewing_time\":2701},{\"page_index\":2,\"viewing_time\":10589}]","internal_node_id":"0.0-0.0","time_elapsed":19209,"trial_index":0},"138":{"rt":927855,"trial_type":"AJDinstructions","view_history":"[{\"page_index\":0,\"viewing_time\":31487},{\"page_index\":1,\"viewing_time\":11369},{\"page_index\":2,\"viewing_time\":884999}]","internal_node_id":"0.0-0.0","time_elapsed":927855,"trial_index":0},"139":{"rt":3477,"trial_type":"AJDinstructions","view_history":"[{\"page_index\":0,\"viewing_time\":1559},{\"page_index\":1,\"viewing_time\":998},{\"page_index\":2,\"viewing_time\":920}]","internal_node_id":"0.0-0.0","time_elapsed":3477,"trial_index":0},"140":{"rt":29853,"trial_type":"AJDinstructions","view_history":"[{\"page_index\":0,\"viewing_time\":2699},{\"page_index\":1,\"viewing_time\":5490},{\"page_index\":2,\"viewing_time\":21663}]","internal_node_id":"0.0-0.0","time_elapsed":29856,"trial_index":0},"141":{"rt":24125,"trial_type":"AJDinstructions","view_history":"[{\"page_index\":0,\"viewing_time\":2367},{\"page_index\":1,\"viewing_time\":5990},{\"page_index\":2,\"viewing_time\":15765}]","internal_node_id":"0.0-0.0","time_elapsed":24129,"trial_index":0},"142":{"rt":14131,"trial_type":"AJDinstructions","view_history":"[{\"page_index\":0,\"viewing_time\":8217},{\"page_index\":1,\"viewing_time\":3227},{\"page_index\":2,\"viewing_time\":2686}]","internal_node_id":"0.0-0.0","time_elapsed":14133,"trial_index":0},"143":{"rt":768479,"trial_type":"AJDinstructions","view_history":"[{\"page_index\":0,\"viewing_time\":711235},{\"page_index\":1,\"viewing_time\":9144},{\"page_index\":2,\"viewing_time\":48098}]","internal_node_id":"0.0-0.0","time_elapsed":768480,"trial_index":0},"144":{"rt":28573,"trial_type":"AJDinstructions","view_history":"[{\"page_index\":0,\"viewing_time\":13703},{\"page_index\":1,\"viewing_time\":2417},{\"page_index\":2,\"viewing_time\":12451}]","internal_node_id":"0.0-0.0","time_elapsed":28573,"trial_index":0},"145":{"rt":19646,"trial_type":"AJDinstructions","view_history":"[{\"page_index\":0,\"viewing_time\":5091},{\"page_index\":1,\"viewing_time\":2195},{\"page_index\":2,\"viewing_time\":12359}]","internal_node_id":"0.0-0.0","time_elapsed":19648,"trial_index":0},"146":{"rt":232860,"trial_type":"AJDinstructions","view_history":"[{\"page_index\":0,\"viewing_time\":56974},{\"page_index\":1,\"viewing_time\":4427},{\"page_index\":2,\"viewing_time\":171456}]","internal_node_id":"0.0-0.0","time_elapsed":232863,"trial_index":0},"147":{"rt":17810,"trial_type":"AJDinstructions","view_history":"[{\"page_index\":0,\"viewing_time\":2459},{\"page_index\":1,\"viewing_time\":2855},{\"page_index\":2,\"viewing_time\":12496}]","internal_node_id":"0.0-0.0","time_elapsed":17811,"trial_index":0},"148":{"rt":75784,"trial_type":"AJDinstructions","view_history":"[{\"page_index\":0,\"viewing_time\":15146},{\"page_index\":1,\"viewing_time\":12623},{\"page_index\":2,\"viewing_time\":3376},{\"page_index\":1,\"viewing_time\":4856},{\"page_index\":2,\"viewing_time\":39782}]","internal_node_id":"0.0-0.0","time_elapsed":75785,"trial_index":0},"149":{"rt":121668,"trial_type":"AJDinstructions","view_history":"[{\"page_index\":0,\"viewing_time\":35438},{\"page_index\":1,\"viewing_time\":13982},{\"page_index\":2,\"viewing_time\":72247}]","internal_node_id":"0.0-0.0","time_elapsed":121671,"trial_index":0},"150":{"rt":33840,"trial_type":"AJDinstructions","view_history":"[{\"page_index\":0,\"viewing_time\":5414},{\"page_index\":1,\"viewing_time\":7284},{\"page_index\":2,\"viewing_time\":21142}]","internal_node_id":"0.0-0.0","time_elapsed":33841,"trial_index":0},"151":{"rt":78611,"trial_type":"AJDinstructions","view_history":"[{\"page_index\":0,\"viewing_time\":16080},{\"page_index\":1,\"viewing_time\":40540},{\"page_index\":2,\"viewing_time\":21990}]","internal_node_id":"0.0-0.0","time_elapsed":78612,"trial_index":0},"152":{"rt":122778,"trial_type":"AJDinstructions","view_history":"[{\"page_index\":0,\"viewing_time\":64626},{\"page_index\":1,\"viewing_time\":12056},{\"page_index\":2,\"viewing_time\":46095}]","internal_node_id":"0.0-0.0","time_elapsed":122778,"trial_index":0},"153":{"rt":23516,"trial_type":"AJDinstructions","view_history":"[{\"page_index\":0,\"viewing_time\":3318},{\"page_index\":1,\"viewing_time\":7642},{\"page_index\":2,\"viewing_time\":12555}]","internal_node_id":"0.0-0.0","time_elapsed":23517,"trial_index":0},"154":{"rt":29487,"trial_type":"AJDinstructions","view_history":"[{\"page_index\":0,\"viewing_time\":5226},{\"page_index\":1,\"viewing_time\":3818},{\"page_index\":2,\"viewing_time\":20443}]","internal_node_id":"0.0-0.0","time_elapsed":29489,"trial_index":0},"155":{"rt":4437,"trial_type":"AJDinstructions","view_history":"[{\"page_index\":0,\"viewing_time\":1390},{\"page_index\":1,\"viewing_time\":1064},{\"page_index\":2,\"viewing_time\":1982}]","internal_node_id":"0.0-0.0","time_elapsed":4437,"trial_index":0},"156":{"rt":102124,"trial_type":"AJDinstructions","view_history":"[{\"page_index\":0,\"viewing_time\":16466},{\"page_index\":1,\"viewing_time\":8949},{\"page_index\":2,\"viewing_time\":76709}]","internal_node_id":"0.0-0.0","time_elapsed":102125,"trial_index":0},"157":{"rt":40724,"trial_type":"AJDinstructions","view_history":"[{\"page_index\":0,\"viewing_time\":4497},{\"page_index\":1,\"viewing_time\":8218},{\"page_index\":2,\"viewing_time\":28008}]","internal_node_id":"0.0-0.0","time_elapsed":40726,"trial_index":0},"158":{"rt":1683106,"trial_type":"AJDinstructions","view_history":"[{\"page_index\":0,\"viewing_time\":2672},{\"page_index\":1,\"viewing_time\":710061},{\"page_index\":2,\"viewing_time\":970370}]","internal_node_id":"0.0-0.0","time_elapsed":1683108,"trial_index":0},"159":{"rt":687228,"trial_type":"AJDinstructions","view_history":"[{\"page_index\":0,\"viewing_time\":605341},{\"page_index\":1,\"viewing_time\":6286},{\"page_index\":2,\"viewing_time\":75600}]","internal_node_id":"0.0-0.0","time_elapsed":687229,"trial_index":0}},"1":{"115":{"trial_type":"AJDquestion","time_elapsed":45765,"statementResponse":100,"internal_node_id":"0.0-1.0-0.0","trial_index":1},"116":{"trial_type":"AJDquestion","time_elapsed":97830,"statementResponse":100,"internal_node_id":"0.0-1.0-0.0","trial_index":1},"117":{"trial_type":"AJDquestion","time_elapsed":42231,"statementResponse":100,"internal_node_id":"0.0-1.0-0.0","trial_index":1},"118":{"trial_type":"AJDquestion","time_elapsed":132410,"statementResponse":100,"internal_node_id":"0.0-1.0-0.0","trial_index":1},"119":{"trial_type":"AJDquestion","time_elapsed":1436841,"statementResponse":100,"internal_node_id":"0.0-1.0-0.0","trial_index":1},"120":{"trial_type":"AJDquestion","time_elapsed":101416,"statementResponse":100,"internal_node_id":"0.0-1.0-0.0","trial_index":1},"121":{"trial_type":"AJDquestion","time_elapsed":68614,"statementResponse":100,"internal_node_id":"0.0-1.0-0.0","trial_index":1},"123":{"trial_type":"AJDquestion","time_elapsed":145924,"statementResponse":100,"internal_node_id":"0.0-1.0-0.0","trial_index":1},"124":{"trial_type":"AJDquestion","time_elapsed":55504,"statementResponse":100,"internal_node_id":"0.0-1.0-0.0","trial_index":1},"125":{"trial_type":"AJDquestion","time_elapsed":23449,"statementResponse":100,"internal_node_id":"0.0-1.0-0.0","trial_index":1},"126":{"trial_type":"AJDquestion","time_elapsed":144016,"statementResponse":100,"internal_node_id":"0.0-1.0-0.0","trial_index":1},"127":{"trial_type":"AJDquestion","time_elapsed":236761,"statementResponse":100,"internal_node_id":"0.0-1.0-0.0","trial_index":1},"128":{"trial_type":"AJDquestion","time_elapsed":39938,"statementResponse":100,"internal_node_id":"0.0-1.0-0.0","trial_index":1},"129":{"trial_type":"AJDquestion","time_elapsed":88716,"statementResponse":100,"internal_node_id":"0.0-1.0-0.0","trial_index":1},"130":{"trial_type":"AJDquestion","time_elapsed":31410,"statementResponse":100,"internal_node_id":"0.0-1.0-0.0","trial_index":1},"131":{"trial_type":"AJDquestion","time_elapsed":81224,"statementResponse":100,"internal_node_id":"0.0-1.0-0.0","trial_index":1},"132":{"trial_type":"AJDquestion","time_elapsed":55868,"statementResponse":100,"internal_node_id":"0.0-1.0-0.0","trial_index":1},"133":{"trial_type":"AJDquestion","time_elapsed":51763,"statementResponse":100,"internal_node_id":"0.0-1.0-0.0","trial_index":1},"134":{"trial_type":"AJDquestion","time_elapsed":109587,"statementResponse":100,"internal_node_id":"0.0-1.0-0.0","trial_index":1},"135":{"trial_type":"AJDquestion","time_elapsed":122188,"statementResponse":100,"internal_node_id":"0.0-1.0-0.0","trial_index":1},"136":{"trial_type":"AJDquestion","time_elapsed":624025,"statementResponse":98,"internal_node_id":"0.0-1.0-0.0","trial_index":1},"137":{"trial_type":"AJDquestion","time_elapsed":27186,"statementResponse":100,"internal_node_id":"0.0-1.0-0.0","trial_index":1},"138":{"trial_type":"AJDquestion","time_elapsed":935701,"statementResponse":100,"internal_node_id":"0.0-1.0-0.0","trial_index":1},"139":{"trial_type":"AJDquestion","time_elapsed":9241,"statementResponse":100,"internal_node_id":"0.0-1.0-0.0","trial_index":1},"140":{"trial_type":"AJDquestion","time_elapsed":37113,"statementResponse":100,"internal_node_id":"0.0-1.0-0.0","trial_index":1},"141":{"trial_type":"AJDquestion","time_elapsed":41352,"statementResponse":99,"internal_node_id":"0.0-1.0-0.0","trial_index":1},"142":{"trial_type":"AJDquestion","time_elapsed":21063,"statementResponse":100,"internal_node_id":"0.0-1.0-0.0","trial_index":1},"143":{"trial_type":"AJDquestion","time_elapsed":790534,"statementResponse":100,"internal_node_id":"0.0-1.0-0.0","trial_index":1},"144":{"trial_type":"AJDquestion","time_elapsed":36552,"statementResponse":100,"internal_node_id":"0.0-1.0-0.0","trial_index":1},"145":{"trial_type":"AJDquestion","time_elapsed":27630,"statementResponse":100,"internal_node_id":"0.0-1.0-0.0","trial_index":1},"146":{"trial_type":"AJDquestion","time_elapsed":251729,"statementResponse":100,"internal_node_id":"0.0-1.0-0.0","trial_index":1},"147":{"trial_type":"AJDquestion","time_elapsed":25192,"statementResponse":100,"internal_node_id":"0.0-1.0-0.0","trial_index":1},"148":{"trial_type":"AJDquestion","time_elapsed":88516,"statementResponse":100,"internal_node_id":"0.0-1.0-0.0","trial_index":1},"149":{"trial_type":"AJDquestion","time_elapsed":139146,"statementResponse":100,"internal_node_id":"0.0-1.0-0.0","trial_index":1},"150":{"trial_type":"AJDquestion","time_elapsed":42031,"statementResponse":99,"internal_node_id":"0.0-1.0-0.0","trial_index":1},"151":{"trial_type":"AJDquestion","time_elapsed":87778,"statementResponse":100,"internal_node_id":"0.0-1.0-0.0","trial_index":1},"152":{"trial_type":"AJDquestion","time_elapsed":134412,"statementResponse":100,"internal_node_id":"0.0-1.0-0.0","trial_index":1},"153":{"trial_type":"AJDquestion","time_elapsed":29593,"statementResponse":100,"internal_node_id":"0.0-1.0-0.0","trial_index":1},"154":{"trial_type":"AJDquestion","time_elapsed":39570,"statementResponse":100,"internal_node_id":"0.0-1.0-0.0","trial_index":1},"155":{"trial_type":"AJDquestion","time_elapsed":35092,"statementResponse":100,"internal_node_id":"0.0-1.0-0.0","trial_index":1},"156":{"trial_type":"AJDquestion","time_elapsed":111575,"statementResponse":100,"internal_node_id":"0.0-1.0-0.0","trial_index":1},"157":{"trial_type":"AJDquestion","time_elapsed":54777,"statementResponse":100,"internal_node_id":"0.0-1.0-0.0","trial_index":1},"158":{"trial_type":"AJDquestion","time_elapsed":1699226,"statementResponse":100,"internal_node_id":"0.0-1.0-0.0","trial_index":1},"159":{"trial_type":"AJDquestion","time_elapsed":696479,"statementResponse":100,"internal_node_id":"0.0-1.0-0.0","trial_index":1}},"2":{"115":{"trial_type":"AJDnews","premierNews":[1532981465568],"time_elapsed":65571,"firstNews":[1532981466577,1532981468186,1532981469764],"internal_node_id":"0.0-1.0-1.0","alphaNews":[1532981462010],"trial_index":2,"firstForAgainst":["for","for","against"]},"116":{"trial_type":"AJDnews","premierNews":[1532981517164,1532981532765],"time_elapsed":136655,"firstNews":[1532981523100],"internal_node_id":"0.0-1.0-1.0","alphaNews":[1532981509757,1532981531735],"trial_index":2,"firstForAgainst":["for"]},"117":{"trial_type":"AJDnews","premierNews":[1532982288436],"time_elapsed":63285,"firstNews":[1532982290483,1532982294283,1532982296251],"internal_node_id":"0.0-1.0-1.0","alphaNews":[1532982285275],"trial_index":2,"firstForAgainst":["against","for","against"]},"118":{"trial_type":"AJDnews","premierNews":[1532981431081],"time_elapsed":169843,"firstNews":[1532981427130],"internal_node_id":"0.0-1.0-1.0","alphaNews":[1532981418665,1532981433513,1532981436945],"trial_index":2,"firstForAgainst":["for"]},"119":{"trial_type":"AJDnews","premierNews":[1532983008265,1532983009765,1532983011148],"time_elapsed":1458057,"firstNews":[1532983014051],"internal_node_id":"0.0-1.0-1.0","alphaNews":[1532983002197],"trial_index":2,"firstForAgainst":["against"]},"120":{"trial_type":"AJDnews","premierNews":[1532983114033,1532983121226],"time_elapsed":133770,"firstNews":[],"internal_node_id":"0.0-1.0-1.0","alphaNews":[1532983101402,1532983104981,1532983118798],"trial_index":2,"firstForAgainst":[]},"121":{"trial_type":"AJDnews","premierNews":[1532983964522,1532983994667,1532983998618],"time_elapsed":132749,"firstNews":[1532983971526],"internal_node_id":"0.0-1.0-1.0","alphaNews":[1532983953759],"trial_index":2,"firstForAgainst":["for"]},"123":{"trial_type":"AJDnews","premierNews":[1532990534117,1532990538044],"time_elapsed":213776,"firstNews":[],"internal_node_id":"0.0-1.0-1.0","alphaNews":[1532990502274,1532990542006,1532990543304],"trial_index":2,"firstForAgainst":[]},"124":{"trial_type":"AJDnews","premierNews":[1533147670370,1533147672737,1533147674172],"time_elapsed":100236,"firstNews":[],"internal_node_id":"0.0-1.0-1.0","alphaNews":[1533147653571,1533147663523],"trial_index":2,"firstForAgainst":[]},"125":{"trial_type":"AJDnews","premierNews":[1533148222614,1533148226358],"time_elapsed":37346,"firstNews":[1533148223845],"internal_node_id":"0.0-1.0-1.0","alphaNews":[1533148220059,1533148225084],"trial_index":2,"firstForAgainst":["against"]},"126":{"trial_type":"AJDnews","premierNews":[1533147787037],"time_elapsed":175697,"firstNews":[1533147789789,1533147791717],"internal_node_id":"0.0-1.0-1.0","alphaNews":[1533147779750,1533147783934],"trial_index":2,"firstForAgainst":["for","for"]},"127":{"trial_type":"AJDnews","premierNews":[1533148363337],"time_elapsed":247073,"firstNews":[1533148364672],"internal_node_id":"0.0-1.0-1.0","alphaNews":[1533148361126,1533148362879,1533148364181],"trial_index":2,"firstForAgainst":["for"]},"128":{"trial_type":"AJDnews","premierNews":[1533147639075,1533147641236,1533147642588],"time_elapsed":65750,"firstNews":[1533147643923],"internal_node_id":"0.0-1.0-1.0","alphaNews":[1533147635880],"trial_index":2,"firstForAgainst":["against"]},"129":{"trial_type":"AJDnews","premierNews":[1533147660016,1533147678560],"time_elapsed":129097,"firstNews":[1533147670817,1533147682113],"internal_node_id":"0.0-1.0-1.0","alphaNews":[1533147656689],"trial_index":2,"firstForAgainst":["against","against"]},"130":{"trial_type":"AJDnews","premierNews":[],"time_elapsed":53714,"firstNews":[],"internal_node_id":"0.0-1.0-1.0","alphaNews":[1533147728458,1533147730264,1533147731864,1533147732744,1533147733782],"trial_index":2,"firstForAgainst":[]},"131":{"trial_type":"AJDnews","premierNews":[1533147682670],"time_elapsed":111252,"firstNews":[1533147686101],"internal_node_id":"0.0-1.0-1.0","alphaNews":[1533147671294,1533147689021,1533147690198],"trial_index":2,"firstForAgainst":["for"]},"132":{"trial_type":"AJDnews","premierNews":[1533149063226,1533149068630],"time_elapsed":80724,"firstNews":[1533149065129],"internal_node_id":"0.0-1.0-1.0","alphaNews":[1533149059895,1533149066952],"trial_index":2,"firstForAgainst":["for"]},"133":{"trial_type":"AJDnews","premierNews":[1533149245959,1533149250245],"time_elapsed":73899,"firstNews":[1533149247412],"internal_node_id":"0.0-1.0-1.0","alphaNews":[1533149243500,1533149251979],"trial_index":2,"firstForAgainst":["for"]},"134":{"trial_type":"AJDnews","premierNews":[],"time_elapsed":143477,"firstNews":[],"internal_node_id":"0.0-1.0-1.0","alphaNews":[1533147999809,1533148001367,1533148002142,1533148003006,1533148003944],"trial_index":2,"firstForAgainst":[]},"135":{"trial_type":"AJDnews","premierNews":[],"time_elapsed":166967,"firstNews":[],"internal_node_id":"0.0-1.0-1.0","alphaNews":[1533148159210,1533148162808,1533148167177,1533148170030,1533148175537],"trial_index":2,"firstForAgainst":[]},"136":{"trial_type":"AJDnews","premierNews":[1533148800692,1533148821442],"time_elapsed":691101,"firstNews":[1533148808856],"internal_node_id":"0.0-1.0-1.0","alphaNews":[1533148782820,1533148816656],"trial_index":2,"firstForAgainst":["against"]},"137":{"trial_type":"AJDnews","premierNews":[1533148220111,1533148232016],"time_elapsed":58364,"firstNews":[1533148222437],"internal_node_id":"0.0-1.0-1.0","alphaNews":[1533148217529,1533148230233],"trial_index":2,"firstForAgainst":["against"]},"138":{"trial_type":"AJDnews","premierNews":[1533149098626,1533149104201],"time_elapsed":957243,"firstNews":[1533149100051,1533149106789],"internal_node_id":"0.0-1.0-1.0","alphaNews":[1533149094594],"trial_index":2,"firstForAgainst":["for","for"]},"139":{"trial_type":"AJDnews","premierNews":[],"time_elapsed":23502,"firstNews":[],"internal_node_id":"0.0-1.0-1.0","alphaNews":[1533150116693,1533150116838,1533150116973,1533150117125,1533150117246],"trial_index":2,"firstForAgainst":[]},"140":{"trial_type":"AJDnews","premierNews":[1533149794685,1533149803904],"time_elapsed":67664,"firstNews":[1533149797020,1533149801796],"internal_node_id":"0.0-1.0-1.0","alphaNews":[1533149789441],"trial_index":2,"firstForAgainst":["for","against"]},"141":{"trial_type":"AJDnews","premierNews":[1533149276083,1533149282705],"time_elapsed":72313,"firstNews":[1533149277199],"internal_node_id":"0.0-1.0-1.0","alphaNews":[1533149273681,1533149279934],"trial_index":2,"firstForAgainst":["against"]},"142":{"trial_type":"AJDnews","premierNews":[1533149479753],"time_elapsed":42486,"firstNews":[],"internal_node_id":"0.0-1.0-1.0","alphaNews":[1533149473877,1533149475316,1533149477828,1533149481431],"trial_index":2,"firstForAgainst":[]},"143":{"trial_type":"AJDnews","premierNews":[1533149123765,1533149168691],"time_elapsed":865721,"firstNews":[1533149134306,1533149163554],"internal_node_id":"0.0-1.0-1.0","alphaNews":[1533149112717],"trial_index":2,"firstForAgainst":["for","for"]},"144":{"trial_type":"AJDnews","premierNews":[1533150278557,1533150288528],"time_elapsed":64659,"firstNews":[1533150282250],"internal_node_id":"0.0-1.0-1.0","alphaNews":[1533150271633,1533150286018],"trial_index":2,"firstForAgainst":["against"]},"145":{"trial_type":"AJDnews","premierNews":[1533149963216],"time_elapsed":57419,"firstNews":[1533149963969,1533149966722,1533149967770],"internal_node_id":"0.0-1.0-1.0","alphaNews":[1533149960082],"trial_index":2,"firstForAgainst":["for","against","for"]},"146":{"trial_type":"AJDnews","premierNews":[1533149932928],"time_elapsed":296205,"firstNews":[1533149931698,1533149937905,1533149941377],"internal_node_id":"0.0-1.0-1.0","alphaNews":[1533149934144],"trial_index":2,"firstForAgainst":["against","against","against"]},"147":{"trial_type":"AJDnews","premierNews":[1533152168540,1533152178654],"time_elapsed":46378,"firstNews":[1533152171434],"internal_node_id":"0.0-1.0-1.0","alphaNews":[1533152165524,1533152176861],"trial_index":2,"firstForAgainst":["against"]},"148":{"trial_type":"AJDnews","premierNews":[1533152190113,1533152197969],"time_elapsed":111675,"firstNews":[1533152192912],"internal_node_id":"0.0-1.0-1.0","alphaNews":[1533152187024,1533152195984],"trial_index":2,"firstForAgainst":["for"]},"149":{"trial_type":"AJDnews","premierNews":[1533154003398,1533154003461,1533154019063],"time_elapsed":176751,"firstNews":[1533154012319],"internal_node_id":"0.0-1.0-1.0","alphaNews":[1533153995518],"trial_index":2,"firstForAgainst":["for"]},"150":{"trial_type":"AJDnews","premierNews":[1533158033339],"time_elapsed":70140,"firstNews":[1533158035572,1533158046054,1533158047299],"internal_node_id":"0.0-1.0-1.0","alphaNews":[1533158028156],"trial_index":2,"firstForAgainst":["for","against","against"]},"151":{"trial_type":"AJDnews","premierNews":[1533233256372,1533233264091,1533233266124,1533233268532],"time_elapsed":112020,"firstNews":[],"internal_node_id":"0.0-1.0-1.0","alphaNews":[1533233261127],"trial_index":2,"firstForAgainst":[]},"152":{"trial_type":"AJDnews","premierNews":[1533233313339,1533233318764],"time_elapsed":163266,"firstNews":[1533233315091],"internal_node_id":"0.0-1.0-1.0","alphaNews":[1533233310020,1533233316851],"trial_index":2,"firstForAgainst":["against"]},"153":{"trial_type":"AJDnews","premierNews":[1533235877937,1533235879795],"time_elapsed":40603,"firstNews":[1533235878445],"internal_node_id":"0.0-1.0-1.0","alphaNews":[1533235876484,1533235879530],"trial_index":2,"firstForAgainst":["for"]},"154":{"trial_type":"AJDnews","premierNews":[],"time_elapsed":62616,"firstNews":[],"internal_node_id":"0.0-1.0-1.0","alphaNews":[1533235463058,1533235466809,1533235469626,1533235471378,1533235473323],"trial_index":2,"firstForAgainst":[]},"155":{"trial_type":"AJDnews","premierNews":[1533236507165,1533236509380,1533236510111],"time_elapsed":43922,"firstNews":[1533236509764],"internal_node_id":"0.0-1.0-1.0","alphaNews":[1533236508147],"trial_index":2,"firstForAgainst":["for"]},"156":{"trial_type":"AJDnews","premierNews":[1533236293506,1533236303643],"time_elapsed":146276,"firstNews":[1533236288251,1533236301474],"internal_node_id":"0.0-1.0-1.0","alphaNews":[1533236296794],"trial_index":2,"firstForAgainst":["for","against"]},"157":{"trial_type":"AJDnews","premierNews":[1533237029429,1533237033789],"time_elapsed":81803,"firstNews":[1533237032011,1533237035495],"internal_node_id":"0.0-1.0-1.0","alphaNews":[1533237024597],"trial_index":2,"firstForAgainst":["for","against"]},"158":{"trial_type":"AJDnews","premierNews":[1533238824539,1533238834254],"time_elapsed":1731475,"firstNews":[1533238827500,1533238831257],"internal_node_id":"0.0-1.0-1.0","alphaNews":[1533238814985],"trial_index":2,"firstForAgainst":["for","for"]},"159":{"trial_type":"AJDnews","premierNews":[1533238022529,1533238039297],"time_elapsed":734317,"firstNews":[1533238020530,1533238040529],"internal_node_id":"0.0-1.0-1.0","alphaNews":[1533238023793],"trial_index":2,"firstForAgainst":["for","for"]}},"3":{"115":{"trial_type":"call-function","time_elapsed":66574,"internal_node_id":"0.0-1.0-2.0","trial_index":3},"116":{"trial_type":"call-function","time_elapsed":137658,"internal_node_id":"0.0-1.0-2.0","trial_index":3},"117":{"trial_type":"call-function","time_elapsed":64288,"internal_node_id":"0.0-1.0-2.0","trial_index":3},"118":{"trial_type":"call-function","time_elapsed":170847,"internal_node_id":"0.0-1.0-2.0","trial_index":3},"119":{"trial_type":"call-function","time_elapsed":1459059,"internal_node_id":"0.0-1.0-2.0","trial_index":3},"120":{"trial_type":"call-function","time_elapsed":134772,"internal_node_id":"0.0-1.0-2.0","trial_index":3},"121":{"trial_type":"call-function","time_elapsed":133750,"internal_node_id":"0.0-1.0-2.0","trial_index":3},"123":{"trial_type":"call-function","time_elapsed":214779,"internal_node_id":"0.0-1.0-2.0","trial_index":3},"124":{"trial_type":"call-function","time_elapsed":101237,"internal_node_id":"0.0-1.0-2.0","trial_index":3},"125":{"trial_type":"call-function","time_elapsed":38349,"internal_node_id":"0.0-1.0-2.0","trial_index":3},"126":{"trial_type":"call-function","time_elapsed":176697,"internal_node_id":"0.0-1.0-2.0","trial_index":3},"127":{"trial_type":"call-function","time_elapsed":248074,"internal_node_id":"0.0-1.0-2.0","trial_index":3},"128":{"trial_type":"call-function","time_elapsed":66751,"internal_node_id":"0.0-1.0-2.0","trial_index":3},"129":{"trial_type":"call-function","time_elapsed":130097,"internal_node_id":"0.0-1.0-2.0","trial_index":3},"130":{"trial_type":"call-function","time_elapsed":54716,"internal_node_id":"0.0-1.0-2.0","trial_index":3},"131":{"trial_type":"call-function","time_elapsed":112253,"internal_node_id":"0.0-1.0-2.0","trial_index":3},"132":{"trial_type":"call-function","time_elapsed":81724,"internal_node_id":"0.0-1.0-2.0","trial_index":3},"133":{"trial_type":"call-function","time_elapsed":74898,"internal_node_id":"0.0-1.0-2.0","trial_index":3},"134":{"trial_type":"call-function","time_elapsed":144481,"internal_node_id":"0.0-1.0-2.0","trial_index":3},"135":{"trial_type":"call-function","time_elapsed":167968,"internal_node_id":"0.0-1.0-2.0","trial_index":3},"136":{"trial_type":"call-function","time_elapsed":692105,"internal_node_id":"0.0-1.0-2.0","trial_index":3},"137":{"trial_type":"call-function","time_elapsed":59365,"internal_node_id":"0.0-1.0-2.0","trial_index":3},"138":{"trial_type":"call-function","time_elapsed":958244,"internal_node_id":"0.0-1.0-2.0","trial_index":3},"139":{"trial_type":"call-function","time_elapsed":24503,"internal_node_id":"0.0-1.0-2.0","trial_index":3},"140":{"trial_type":"call-function","time_elapsed":68666,"internal_node_id":"0.0-1.0-2.0","trial_index":3},"141":{"trial_type":"call-function","time_elapsed":73315,"internal_node_id":"0.0-1.0-2.0","trial_index":3},"142":{"trial_type":"call-function","time_elapsed":43488,"internal_node_id":"0.0-1.0-2.0","trial_index":3},"143":{"trial_type":"call-function","time_elapsed":866722,"internal_node_id":"0.0-1.0-2.0","trial_index":3},"144":{"trial_type":"call-function","time_elapsed":65661,"internal_node_id":"0.0-1.0-2.0","trial_index":3},"145":{"trial_type":"call-function","time_elapsed":58421,"internal_node_id":"0.0-1.0-2.0","trial_index":3},"146":{"trial_type":"call-function","time_elapsed":297208,"internal_node_id":"0.0-1.0-2.0","trial_index":3},"147":{"trial_type":"call-function","time_elapsed":47378,"internal_node_id":"0.0-1.0-2.0","trial_index":3},"148":{"trial_type":"call-function","time_elapsed":112676,"internal_node_id":"0.0-1.0-2.0","trial_index":3},"149":{"trial_type":"call-function","time_elapsed":177754,"internal_node_id":"0.0-1.0-2.0","trial_index":3},"150":{"trial_type":"call-function","time_elapsed":71142,"internal_node_id":"0.0-1.0-2.0","trial_index":3},"151":{"trial_type":"call-function","time_elapsed":113024,"internal_node_id":"0.0-1.0-2.0","trial_index":3},"152":{"trial_type":"call-function","time_elapsed":164266,"internal_node_id":"0.0-1.0-2.0","trial_index":3},"153":{"trial_type":"call-function","time_elapsed":41604,"internal_node_id":"0.0-1.0-2.0","trial_index":3},"154":{"trial_type":"call-function","time_elapsed":63618,"internal_node_id":"0.0-1.0-2.0","trial_index":3},"155":{"trial_type":"call-function","time_elapsed":44925,"internal_node_id":"0.0-1.0-2.0","trial_index":3},"156":{"trial_type":"call-function","time_elapsed":147277,"internal_node_id":"0.0-1.0-2.0","trial_index":3},"157":{"trial_type":"call-function","time_elapsed":82803,"internal_node_id":"0.0-1.0-2.0","trial_index":3},"158":{"trial_type":"call-function","time_elapsed":1732535,"internal_node_id":"0.0-1.0-2.0","trial_index":3},"159":{"trial_type":"call-function","time_elapsed":735319,"internal_node_id":"0.0-1.0-2.0","trial_index":3}},"4":{"115":{"rt":7231,"trial_type":"AJDinstructions","view_history":"[{\"page_index\":0,\"viewing_time\":7231}]","internal_node_id":"0.0-2.0","time_elapsed":73805,"trial_index":4},"116":{"rt":13085,"trial_type":"AJDinstructions","view_history":"[{\"page_index\":0,\"viewing_time\":13084}]","internal_node_id":"0.0-2.0","time_elapsed":150744,"trial_index":4},"117":{"rt":4453,"trial_type":"AJDinstructions","view_history":"[{\"page_index\":0,\"viewing_time\":4453}]","internal_node_id":"0.0-2.0","time_elapsed":68741,"trial_index":4},"118":{"rt":309454,"trial_type":"AJDinstructions","view_history":"[{\"page_index\":0,\"viewing_time\":309453}]","internal_node_id":"0.0-2.0","time_elapsed":480303,"trial_index":4},"119":{"rt":18421,"trial_type":"AJDinstructions","view_history":"[{\"page_index\":0,\"viewing_time\":18421}]","internal_node_id":"0.0-2.0","time_elapsed":1477481,"trial_index":4},"120":{"rt":15180,"trial_type":"AJDinstructions","view_history":"[{\"page_index\":0,\"viewing_time\":15179}]","internal_node_id":"0.0-2.0","time_elapsed":149952,"trial_index":4},"121":{"rt":11332,"trial_type":"AJDinstructions","view_history":"[{\"page_index\":0,\"viewing_time\":11331}]","internal_node_id":"0.0-2.0","time_elapsed":145082,"trial_index":4},"123":{"rt":13842,"trial_type":"AJDinstructions","view_history":"[{\"page_index\":0,\"viewing_time\":13841}]","internal_node_id":"0.0-2.0","time_elapsed":228621,"trial_index":4},"124":{"rt":3093,"trial_type":"AJDinstructions","view_history":"[{\"page_index\":0,\"viewing_time\":3093}]","internal_node_id":"0.0-2.0","time_elapsed":104330,"trial_index":4},"125":{"rt":17196,"trial_type":"AJDinstructions","view_history":"[{\"page_index\":0,\"viewing_time\":17196}]","internal_node_id":"0.0-2.0","time_elapsed":55546,"trial_index":4},"126":{"rt":4624,"trial_type":"AJDinstructions","view_history":"[{\"page_index\":0,\"viewing_time\":4624}]","internal_node_id":"0.0-2.0","time_elapsed":181322,"trial_index":4},"127":{"rt":2474,"trial_type":"AJDinstructions","view_history":"[{\"page_index\":0,\"viewing_time\":2474}]","internal_node_id":"0.0-2.0","time_elapsed":250548,"trial_index":4},"128":{"rt":10051,"trial_type":"AJDinstructions","view_history":"[{\"page_index\":0,\"viewing_time\":10050}]","internal_node_id":"0.0-2.0","time_elapsed":76803,"trial_index":4},"129":{"rt":6246,"trial_type":"AJDinstructions","view_history":"[{\"page_index\":0,\"viewing_time\":6245}]","internal_node_id":"0.0-2.0","time_elapsed":136343,"trial_index":4},"130":{"rt":3756,"trial_type":"AJDinstructions","view_history":"[{\"page_index\":0,\"viewing_time\":3754}]","internal_node_id":"0.0-2.0","time_elapsed":58472,"trial_index":4},"131":{"rt":10798,"trial_type":"AJDinstructions","view_history":"[{\"page_index\":0,\"viewing_time\":10797}]","internal_node_id":"0.0-2.0","time_elapsed":123051,"trial_index":4},"132":{"rt":8832,"trial_type":"AJDinstructions","view_history":"[{\"page_index\":0,\"viewing_time\":8831}]","internal_node_id":"0.0-2.0","time_elapsed":90556,"trial_index":4},"133":{"rt":4507,"trial_type":"AJDinstructions","view_history":"[{\"page_index\":0,\"viewing_time\":4506}]","internal_node_id":"0.0-2.0","time_elapsed":79405,"trial_index":4},"134":{"rt":5478,"trial_type":"AJDinstructions","view_history":"[{\"page_index\":0,\"viewing_time\":5478}]","internal_node_id":"0.0-2.0","time_elapsed":149959,"trial_index":4},"135":{"rt":78130,"trial_type":"AJDinstructions","view_history":"[{\"page_index\":0,\"viewing_time\":78129}]","internal_node_id":"0.0-2.0","time_elapsed":246098,"trial_index":4},"136":{"rt":26137,"trial_type":"AJDinstructions","view_history":"[{\"page_index\":0,\"viewing_time\":26133}]","internal_node_id":"0.0-2.0","time_elapsed":718247,"trial_index":4},"137":{"rt":3901,"trial_type":"AJDinstructions","view_history":"[{\"page_index\":0,\"viewing_time\":3900}]","internal_node_id":"0.0-2.0","time_elapsed":63266,"trial_index":4},"138":{"rt":30228,"trial_type":"AJDinstructions","view_history":"[{\"page_index\":0,\"viewing_time\":30227}]","internal_node_id":"0.0-2.0","time_elapsed":988472,"trial_index":4},"139":{"rt":2302,"trial_type":"AJDinstructions","view_history":"[{\"page_index\":0,\"viewing_time\":2302}]","internal_node_id":"0.0-2.0","time_elapsed":26805,"trial_index":4},"140":{"rt":4229,"trial_type":"AJDinstructions","view_history":"[{\"page_index\":0,\"viewing_time\":4228}]","internal_node_id":"0.0-2.0","time_elapsed":72895,"trial_index":4},"141":{"rt":4490,"trial_type":"AJDinstructions","view_history":"[{\"page_index\":0,\"viewing_time\":4481}]","internal_node_id":"0.0-2.0","time_elapsed":77807,"trial_index":4},"142":{"rt":3294,"trial_type":"AJDinstructions","view_history":"[{\"page_index\":0,\"viewing_time\":3291}]","internal_node_id":"0.0-2.0","time_elapsed":46782,"trial_index":4},"143":{"rt":16848,"trial_type":"AJDinstructions","view_history":"[{\"page_index\":0,\"viewing_time\":16846}]","internal_node_id":"0.0-2.0","time_elapsed":883571,"trial_index":4},"144":{"rt":3502,"trial_type":"AJDinstructions","view_history":"[{\"page_index\":0,\"viewing_time\":3501}]","internal_node_id":"0.0-2.0","time_elapsed":69164,"trial_index":4},"145":{"rt":2503,"trial_type":"AJDinstructions","view_history":"[{\"page_index\":0,\"viewing_time\":2502}]","internal_node_id":"0.0-2.0","time_elapsed":60924,"trial_index":4},"146":{"rt":6856,"trial_type":"AJDinstructions","view_history":"[{\"page_index\":0,\"viewing_time\":6853}]","internal_node_id":"0.0-2.0","time_elapsed":304065,"trial_index":4},"147":{"rt":3739,"trial_type":"AJDinstructions","view_history":"[{\"page_index\":0,\"viewing_time\":3738}]","internal_node_id":"0.0-2.0","time_elapsed":51117,"trial_index":4},"148":{"rt":10065,"trial_type":"AJDinstructions","view_history":"[{\"page_index\":0,\"viewing_time\":10065}]","internal_node_id":"0.0-2.0","time_elapsed":122741,"trial_index":4},"149":{"rt":17074,"trial_type":"AJDinstructions","view_history":"[{\"page_index\":0,\"viewing_time\":17072}]","internal_node_id":"0.0-2.0","time_elapsed":194829,"trial_index":4},"150":{"rt":12617,"trial_type":"AJDinstructions","view_history":"[{\"page_index\":0,\"viewing_time\":12617}]","internal_node_id":"0.0-2.0","time_elapsed":83759,"trial_index":4},"151":{"rt":4849,"trial_type":"AJDinstructions","view_history":"[{\"page_index\":0,\"viewing_time\":4849}]","internal_node_id":"0.0-2.0","time_elapsed":117874,"trial_index":4},"152":{"rt":12816,"trial_type":"AJDinstructions","view_history":"[{\"page_index\":0,\"viewing_time\":12815}]","internal_node_id":"0.0-2.0","time_elapsed":177082,"trial_index":4},"153":{"rt":1664,"trial_type":"AJDinstructions","view_history":"[{\"page_index\":0,\"viewing_time\":1664}]","internal_node_id":"0.0-2.0","time_elapsed":43268,"trial_index":4},"154":{"rt":2827,"trial_type":"AJDinstructions","view_history":"[{\"page_index\":0,\"viewing_time\":2827}]","internal_node_id":"0.0-2.0","time_elapsed":66445,"trial_index":4},"155":{"rt":15846,"trial_type":"AJDinstructions","view_history":"[{\"page_index\":0,\"viewing_time\":15846}]","internal_node_id":"0.0-2.0","time_elapsed":60771,"trial_index":4},"156":{"rt":47749,"trial_type":"AJDinstructions","view_history":"[{\"page_index\":0,\"viewing_time\":47749}]","internal_node_id":"0.0-2.0","time_elapsed":195027,"trial_index":4},"157":{"rt":2172,"trial_type":"AJDinstructions","view_history":"[{\"page_index\":0,\"viewing_time\":2171}]","internal_node_id":"0.0-2.0","time_elapsed":84976,"trial_index":4},"158":{"rt":13318,"trial_type":"AJDinstructions","view_history":"[{\"page_index\":0,\"viewing_time\":13316}]","internal_node_id":"0.0-2.0","time_elapsed":1745855,"trial_index":4},"159":{"rt":2942,"trial_type":"AJDinstructions","view_history":"[{\"page_index\":0,\"viewing_time\":2941}]","internal_node_id":"0.0-2.0","time_elapsed":738261,"trial_index":4}},"5":{"115":{"trial_type":"AJDquestion","time_elapsed":81080,"statementResponse":81,"internal_node_id":"0.0-3.0-0.0","trial_index":5},"116":{"trial_type":"AJDquestion","time_elapsed":163177,"statementResponse":8,"internal_node_id":"0.0-3.0-0.0","trial_index":5},"117":{"trial_type":"AJDquestion","time_elapsed":75489,"statementResponse":22,"internal_node_id":"0.0-3.0-0.0","trial_index":5},"118":{"trial_type":"AJDquestion","time_elapsed":492237,"statementResponse":16,"internal_node_id":"0.0-3.0-0.0","trial_index":5},"119":{"trial_type":"AJDquestion","time_elapsed":1485864,"statementResponse":14,"internal_node_id":"0.0-3.0-0.0","trial_index":5},"120":{"trial_type":"AJDquestion","time_elapsed":159793,"statementResponse":76,"internal_node_id":"0.0-3.0-0.0","trial_index":5},"121":{"trial_type":"AJDquestion","time_elapsed":156547,"statementResponse":2,"internal_node_id":"0.0-3.0-0.0","trial_index":5},"123":{"trial_type":"AJDquestion","time_elapsed":240488,"statementResponse":21,"internal_node_id":"0.0-3.0-0.0","trial_index":5},"124":{"trial_type":"AJDquestion","time_elapsed":120474,"statementResponse":1,"internal_node_id":"0.0-3.0-0.0","trial_index":5},"125":{"trial_type":"AJDquestion","time_elapsed":62615,"statementResponse":11,"internal_node_id":"0.0-3.0-0.0","trial_index":5},"126":{"trial_type":"AJDquestion","time_elapsed":197245,"statementResponse":49,"internal_node_id":"0.0-3.0-0.0","trial_index":5},"127":{"trial_type":"AJDquestion","time_elapsed":357231,"statementResponse":1,"internal_node_id":"0.0-3.0-0.0","trial_index":5},"128":{"trial_type":"AJDquestion","time_elapsed":85039,"statementResponse":30,"internal_node_id":"0.0-3.0-0.0","trial_index":5},"129":{"trial_type":"AJDquestion","time_elapsed":155498,"statementResponse":71,"internal_node_id":"0.0-3.0-0.0","trial_index":5},"130":{"trial_type":"AJDquestion","time_elapsed":64670,"statementResponse":50,"internal_node_id":"0.0-3.0-0.0","trial_index":5},"131":{"trial_type":"AJDquestion","time_elapsed":131636,"statementResponse":11,"internal_node_id":"0.0-3.0-0.0","trial_index":5},"132":{"trial_type":"AJDquestion","time_elapsed":98676,"statementResponse":23,"internal_node_id":"0.0-3.0-0.0","trial_index":5},"133":{"trial_type":"AJDquestion","time_elapsed":87080,"statementResponse":33,"internal_node_id":"0.0-3.0-0.0","trial_index":5},"134":{"trial_type":"AJDquestion","time_elapsed":174895,"statementResponse":19,"internal_node_id":"0.0-3.0-0.0","trial_index":5},"135":{"trial_type":"AJDquestion","time_elapsed":256394,"statementResponse":99,"internal_node_id":"0.0-3.0-0.0","trial_index":5},"136":{"trial_type":"AJDquestion","time_elapsed":727959,"statementResponse":24,"internal_node_id":"0.0-3.0-0.0","trial_index":5},"137":{"trial_type":"AJDquestion","time_elapsed":72210,"statementResponse":80,"internal_node_id":"0.0-3.0-0.0","trial_index":5},"138":{"trial_type":"AJDquestion","time_elapsed":997775,"statementResponse":1,"internal_node_id":"0.0-3.0-0.0","trial_index":5},"139":{"trial_type":"AJDquestion","time_elapsed":34064,"statementResponse":69,"internal_node_id":"0.0-3.0-0.0","trial_index":5},"140":{"trial_type":"AJDquestion","time_elapsed":80230,"statementResponse":36,"internal_node_id":"0.0-3.0-0.0","trial_index":5},"141":{"trial_type":"AJDquestion","time_elapsed":85262,"statementResponse":96,"internal_node_id":"0.0-3.0-0.0","trial_index":5},"142":{"trial_type":"AJDquestion","time_elapsed":53598,"statementResponse":80,"internal_node_id":"0.0-3.0-0.0","trial_index":5},"143":{"trial_type":"AJDquestion","time_elapsed":898896,"statementResponse":37,"internal_node_id":"0.0-3.0-0.0","trial_index":5},"144":{"trial_type":"AJDquestion","time_elapsed":76992,"statementResponse":79,"internal_node_id":"0.0-3.0-0.0","trial_index":5},"145":{"trial_type":"AJDquestion","time_elapsed":69068,"statementResponse":60,"internal_node_id":"0.0-3.0-0.0","trial_index":5},"146":{"trial_type":"AJDquestion","time_elapsed":319763,"statementResponse":74,"internal_node_id":"0.0-3.0-0.0","trial_index":5},"147":{"trial_type":"AJDquestion","time_elapsed":58440,"statementResponse":24,"internal_node_id":"0.0-3.0-0.0","trial_index":5},"148":{"trial_type":"AJDquestion","time_elapsed":143769,"statementResponse":25,"internal_node_id":"0.0-3.0-0.0","trial_index":5},"149":{"trial_type":"AJDquestion","time_elapsed":203114,"statementResponse":36,"internal_node_id":"0.0-3.0-0.0","trial_index":5},"150":{"trial_type":"AJDquestion","time_elapsed":90765,"statementResponse":63,"internal_node_id":"0.0-3.0-0.0","trial_index":5},"151":{"trial_type":"AJDquestion","time_elapsed":131693,"statementResponse":22,"internal_node_id":"0.0-3.0-0.0","trial_index":5},"152":{"trial_type":"AJDquestion","time_elapsed":185259,"statementResponse":64,"internal_node_id":"0.0-3.0-0.0","trial_index":5},"153":{"trial_type":"AJDquestion","time_elapsed":49812,"statementResponse":37,"internal_node_id":"0.0-3.0-0.0","trial_index":5},"154":{"trial_type":"AJDquestion","time_elapsed":73434,"statementResponse":1,"internal_node_id":"0.0-3.0-0.0","trial_index":5},"155":{"trial_type":"AJDquestion","time_elapsed":66065,"statementResponse":86,"internal_node_id":"0.0-3.0-0.0","trial_index":5},"156":{"trial_type":"AJDquestion","time_elapsed":216698,"statementResponse":62,"internal_node_id":"0.0-3.0-0.0","trial_index":5},"157":{"trial_type":"AJDquestion","time_elapsed":96096,"statementResponse":73,"internal_node_id":"0.0-3.0-0.0","trial_index":5},"158":{"trial_type":"AJDquestion","time_elapsed":1756302,"statementResponse":65,"internal_node_id":"0.0-3.0-0.0","trial_index":5},"159":{"trial_type":"AJDquestion","time_elapsed":760590,"statementResponse":23,"internal_node_id":"0.0-3.0-0.0","trial_index":5}},"6":{"115":{"rt":29679,"trial_type":"survey-likert","responses":[65,47,48,58],"internal_node_id":"0.0-3.0-1.0","time_elapsed":111774,"trial_index":6},"116":{"rt":22121,"trial_type":"survey-likert","responses":[74,22,63,49],"internal_node_id":"0.0-3.0-1.0","time_elapsed":186350,"trial_index":6},"117":{"rt":14522,"trial_type":"survey-likert","responses":[69,45,13,53],"internal_node_id":"0.0-3.0-1.0","time_elapsed":91026,"trial_index":6},"118":{"rt":13436,"trial_type":"survey-likert","responses":[65,38,38,77],"internal_node_id":"0.0-3.0-1.0","time_elapsed":506698,"trial_index":6},"119":{"rt":13227,"trial_type":"survey-likert","responses":[62,40,14,26],"internal_node_id":"0.0-3.0-1.0","time_elapsed":1500107,"trial_index":6},"120":{"rt":13025,"trial_type":"survey-likert","responses":[80,40,49,71],"internal_node_id":"0.0-3.0-1.0","time_elapsed":173839,"trial_index":6},"121":{"rt":20015,"trial_type":"survey-likert","responses":[86,63,64,64],"internal_node_id":"0.0-3.0-1.0","time_elapsed":177593,"trial_index":6},"123":{"rt":23544,"trial_type":"survey-likert","responses":[39,24,39,38],"internal_node_id":"0.0-3.0-1.0","time_elapsed":265094,"trial_index":6},"124":{"rt":32992,"trial_type":"survey-likert","responses":[38,13,63,63],"internal_node_id":"0.0-3.0-1.0","time_elapsed":154508,"trial_index":6},"125":{"rt":11334,"trial_type":"survey-likert","responses":[62,38,14,39],"internal_node_id":"0.0-3.0-1.0","time_elapsed":74985,"trial_index":6},"126":{"rt":28986,"trial_type":"survey-likert","responses":[88,38,38,38],"internal_node_id":"0.0-3.0-1.0","time_elapsed":227259,"trial_index":6},"127":{"rt":61829,"trial_type":"survey-likert","responses":[43,17,100,100],"internal_node_id":"0.0-3.0-1.0","time_elapsed":420871,"trial_index":6},"128":{"rt":8271,"trial_type":"survey-likert","responses":[61,35,33,74],"internal_node_id":"0.0-3.0-1.0","time_elapsed":94327,"trial_index":6},"129":{"rt":50218,"trial_type":"survey-likert","responses":[38,1,1,1],"internal_node_id":"0.0-3.0-1.0","time_elapsed":206764,"trial_index":6},"130":{"rt":7842,"trial_type":"survey-likert","responses":[12,12,13,12],"internal_node_id":"0.0-3.0-1.0","time_elapsed":73600,"trial_index":6},"131":{"rt":24085,"trial_type":"survey-likert","responses":[86,40,52,75],"internal_node_id":"0.0-3.0-1.0","time_elapsed":156736,"trial_index":6},"132":{"rt":18323,"trial_type":"survey-likert","responses":[87,47,11,38],"internal_node_id":"0.0-3.0-1.0","time_elapsed":118019,"trial_index":6},"133":{"rt":13435,"trial_type":"survey-likert","responses":[23,13,1,50],"internal_node_id":"0.0-3.0-1.0","time_elapsed":101535,"trial_index":6},"134":{"rt":73213,"trial_type":"survey-likert","responses":[64,15,44,65],"internal_node_id":"0.0-3.0-1.0","time_elapsed":249132,"trial_index":6},"135":{"rt":21429,"trial_type":"survey-likert","responses":[63,51,87,62],"internal_node_id":"0.0-3.0-1.0","time_elapsed":278859,"trial_index":6},"136":{"rt":15829,"trial_type":"survey-likert","responses":[39,12,42,58],"internal_node_id":"0.0-3.0-1.0","time_elapsed":744898,"trial_index":6},"137":{"rt":17292,"trial_type":"survey-likert","responses":[64,19,63,100],"internal_node_id":"0.0-3.0-1.0","time_elapsed":90518,"trial_index":6},"138":{"rt":232719,"trial_type":"survey-likert","responses":[90,43,18,11],"internal_node_id":"0.0-3.0-1.0","time_elapsed":1231507,"trial_index":6},"139":{"rt":3530,"trial_type":"survey-likert","responses":[58,53,50,56],"internal_node_id":"0.0-3.0-1.0","time_elapsed":38611,"trial_index":6},"140":{"rt":12734,"trial_type":"survey-likert","responses":[63,53,61,77],"internal_node_id":"0.0-3.0-1.0","time_elapsed":93999,"trial_index":6},"141":{"rt":23047,"trial_type":"survey-likert","responses":[77,50,77,85],"internal_node_id":"0.0-3.0-1.0","time_elapsed":109452,"trial_index":6},"142":{"rt":16633,"trial_type":"survey-likert","responses":[63,50,64,51],"internal_node_id":"0.0-3.0-1.0","time_elapsed":71300,"trial_index":6},"143":{"rt":21812,"trial_type":"survey-likert","responses":[38,14,62,89],"internal_node_id":"0.0-3.0-1.0","time_elapsed":921768,"trial_index":6},"144":{"rt":14107,"trial_type":"survey-likert","responses":[62,63,37,87],"internal_node_id":"0.0-3.0-1.0","time_elapsed":92138,"trial_index":6},"145":{"rt":11394,"trial_type":"survey-likert","responses":[49,35,54,69],"internal_node_id":"0.0-3.0-1.0","time_elapsed":81479,"trial_index":6},"146":{"rt":21239,"trial_type":"survey-likert","responses":[62,62,51,52],"internal_node_id":"0.0-3.0-1.0","time_elapsed":342063,"trial_index":6},"147":{"rt":13270,"trial_type":"survey-likert","responses":[57,36,24,55],"internal_node_id":"0.0-3.0-1.0","time_elapsed":72732,"trial_index":6},"148":{"rt":20527,"trial_type":"survey-likert","responses":[62,38,16,9],"internal_node_id":"0.0-3.0-1.0","time_elapsed":165324,"trial_index":6},"149":{"rt":19035,"trial_type":"survey-likert","responses":[37,25,39,62],"internal_node_id":"0.0-3.0-1.0","time_elapsed":223182,"trial_index":6},"150":{"rt":13562,"trial_type":"survey-likert","responses":[38,13,14,23],"internal_node_id":"0.0-3.0-1.0","time_elapsed":105344,"trial_index":6},"151":{"rt":10725,"trial_type":"survey-likert","responses":[61,40,86,86],"internal_node_id":"0.0-3.0-1.0","time_elapsed":143443,"trial_index":6},"152":{"rt":20108,"trial_type":"survey-likert","responses":[63,37,37,62],"internal_node_id":"0.0-3.0-1.0","time_elapsed":206382,"trial_index":6},"153":{"rt":7048,"trial_type":"survey-likert","responses":[35,62,36,41],"internal_node_id":"0.0-3.0-1.0","time_elapsed":57878,"trial_index":6},"154":{"rt":15154,"trial_type":"survey-likert","responses":[88,38,63,63],"internal_node_id":"0.0-3.0-1.0","time_elapsed":89620,"trial_index":6},"155":{"rt":45037,"trial_type":"survey-likert","responses":[75,32,43,30],"internal_node_id":"0.0-3.0-1.0","time_elapsed":112112,"trial_index":6},"156":{"rt":20361,"trial_type":"survey-likert","responses":[15,34,15,61],"internal_node_id":"0.0-3.0-1.0","time_elapsed":238078,"trial_index":6},"157":{"rt":10519,"trial_type":"survey-likert","responses":[63,38,90,88],"internal_node_id":"0.0-3.0-1.0","time_elapsed":107628,"trial_index":6},"158":{"rt":11520,"trial_type":"survey-likert","responses":[47,38,27,37],"internal_node_id":"0.0-3.0-1.0","time_elapsed":1768874,"trial_index":6},"159":{"rt":141544,"trial_type":"survey-likert","responses":[64,38,1,1],"internal_node_id":"0.0-3.0-1.0","time_elapsed":903153,"trial_index":6}},"7":{"115":{"rt":26067,"trial_type":"survey-likert","responses":[61,32],"internal_node_id":"0.0-3.0-2.0","time_elapsed":138852,"trial_index":7},"116":{"rt":10107,"trial_type":"survey-likert","responses":[88,63],"internal_node_id":"0.0-3.0-2.0","time_elapsed":197488,"trial_index":7},"117":{"rt":9231,"trial_type":"survey-likert","responses":[38,21],"internal_node_id":"0.0-3.0-2.0","time_elapsed":101271,"trial_index":7},"118":{"rt":8098,"trial_type":"survey-likert","responses":[78,27],"internal_node_id":"0.0-3.0-2.0","time_elapsed":515807,"trial_index":7},"119":{"rt":5378,"trial_type":"survey-likert","responses":[38,23],"internal_node_id":"0.0-3.0-2.0","time_elapsed":1506496,"trial_index":7},"120":{"rt":11476,"trial_type":"survey-likert","responses":[3,89],"internal_node_id":"0.0-3.0-2.0","time_elapsed":186326,"trial_index":7},"121":{"rt":8658,"trial_type":"survey-likert","responses":[84,15],"internal_node_id":"0.0-3.0-2.0","time_elapsed":187266,"trial_index":7},"123":{"rt":11743,"trial_type":"survey-likert","responses":[14,38],"internal_node_id":"0.0-3.0-2.0","time_elapsed":277857,"trial_index":7},"124":{"rt":13921,"trial_type":"survey-likert","responses":[38,100],"internal_node_id":"0.0-3.0-2.0","time_elapsed":169451,"trial_index":7},"125":{"rt":5741,"trial_type":"survey-likert","responses":[64,23],"internal_node_id":"0.0-3.0-2.0","time_elapsed":81744,"trial_index":7},"126":{"rt":11054,"trial_type":"survey-likert","responses":[13,64],"internal_node_id":"0.0-3.0-2.0","time_elapsed":239355,"trial_index":7},"127":{"rt":4480,"trial_type":"survey-likert","responses":[100,1],"internal_node_id":"0.0-3.0-2.0","time_elapsed":426355,"trial_index":7},"128":{"rt":5279,"trial_type":"survey-likert","responses":[37,61],"internal_node_id":"0.0-3.0-2.0","time_elapsed":100624,"trial_index":7},"129":{"rt":26632,"trial_type":"survey-likert","responses":[9,62],"internal_node_id":"0.0-3.0-2.0","time_elapsed":234420,"trial_index":7},"130":{"rt":5334,"trial_type":"survey-likert","responses":[74,14],"internal_node_id":"0.0-3.0-2.0","time_elapsed":79986,"trial_index":7},"131":{"rt":28138,"trial_type":"survey-likert","responses":[13,26],"internal_node_id":"0.0-3.0-2.0","time_elapsed":185884,"trial_index":7},"132":{"rt":6064,"trial_type":"survey-likert","responses":[1,27],"internal_node_id":"0.0-3.0-2.0","time_elapsed":125093,"trial_index":7},"133":{"rt":6887,"trial_type":"survey-likert","responses":[51,16],"internal_node_id":"0.0-3.0-2.0","time_elapsed":109434,"trial_index":7},"134":{"rt":228691,"trial_type":"survey-likert","responses":[1,64],"internal_node_id":"0.0-3.0-2.0","time_elapsed":478837,"trial_index":7},"135":{"rt":11685,"trial_type":"survey-likert","responses":[13,61],"internal_node_id":"0.0-3.0-2.0","time_elapsed":291563,"trial_index":7},"136":{"rt":8856,"trial_type":"survey-likert","responses":[28,69],"internal_node_id":"0.0-3.0-2.0","time_elapsed":754822,"trial_index":7},"137":{"rt":8205,"trial_type":"survey-likert","responses":[13,38],"internal_node_id":"0.0-3.0-2.0","time_elapsed":99731,"trial_index":7},"138":{"rt":7312,"trial_type":"survey-likert","responses":[1,42],"internal_node_id":"0.0-3.0-2.0","time_elapsed":1239828,"trial_index":7},"139":{"rt":2657,"trial_type":"survey-likert","responses":[55,58],"internal_node_id":"0.0-3.0-2.0","time_elapsed":42280,"trial_index":7},"140":{"rt":8131,"trial_type":"survey-likert","responses":[67,72],"internal_node_id":"0.0-3.0-2.0","time_elapsed":103149,"trial_index":7},"141":{"rt":5494,"trial_type":"survey-likert","responses":[11,77],"internal_node_id":"0.0-3.0-2.0","time_elapsed":116008,"trial_index":7},"142":{"rt":7735,"trial_type":"survey-likert","responses":[20,65],"internal_node_id":"0.0-3.0-2.0","time_elapsed":80071,"trial_index":7},"143":{"rt":10305,"trial_type":"survey-likert","responses":[100,38],"internal_node_id":"0.0-3.0-2.0","time_elapsed":933108,"trial_index":7},"144":{"rt":6069,"trial_type":"survey-likert","responses":[13,39],"internal_node_id":"0.0-3.0-2.0","time_elapsed":99235,"trial_index":7},"145":{"rt":5725,"trial_type":"survey-likert","responses":[38,51],"internal_node_id":"0.0-3.0-2.0","time_elapsed":88215,"trial_index":7},"146":{"rt":7955,"trial_type":"survey-likert","responses":[46,15],"internal_node_id":"0.0-3.0-2.0","time_elapsed":351050,"trial_index":7},"147":{"rt":6416,"trial_type":"survey-likert","responses":[57,51],"internal_node_id":"0.0-3.0-2.0","time_elapsed":80174,"trial_index":7},"148":{"rt":14799,"trial_type":"survey-likert","responses":[1,22],"internal_node_id":"0.0-3.0-2.0","time_elapsed":181137,"trial_index":7},"149":{"rt":9387,"trial_type":"survey-likert","responses":[99,14],"internal_node_id":"0.0-3.0-2.0","time_elapsed":233598,"trial_index":7},"150":{"rt":9009,"trial_type":"survey-likert","responses":[37,63],"internal_node_id":"0.0-3.0-2.0","time_elapsed":115367,"trial_index":7},"151":{"rt":6332,"trial_type":"survey-likert","responses":[83,65],"internal_node_id":"0.0-3.0-2.0","time_elapsed":150791,"trial_index":7},"152":{"rt":10090,"trial_type":"survey-likert","responses":[23,75],"internal_node_id":"0.0-3.0-2.0","time_elapsed":217483,"trial_index":7},"153":{"rt":3308,"trial_type":"survey-likert","responses":[33,44],"internal_node_id":"0.0-3.0-2.0","time_elapsed":62201,"trial_index":7},"154":{"rt":6534,"trial_type":"survey-likert","responses":[88,14],"internal_node_id":"0.0-3.0-2.0","time_elapsed":97176,"trial_index":7},"155":{"rt":7233,"trial_type":"survey-likert","responses":[1,45],"internal_node_id":"0.0-3.0-2.0","time_elapsed":120355,"trial_index":7},"156":{"rt":8180,"trial_type":"survey-likert","responses":[14,14],"internal_node_id":"0.0-3.0-2.0","time_elapsed":247266,"trial_index":7},"157":{"rt":14564,"trial_type":"survey-likert","responses":[1,98],"internal_node_id":"0.0-3.0-2.0","time_elapsed":123200,"trial_index":7},"158":{"rt":8275,"trial_type":"survey-likert","responses":[40,34],"internal_node_id":"0.0-3.0-2.0","time_elapsed":1778177,"trial_index":7},"159":{"rt":19797,"trial_type":"survey-likert","responses":[1,61],"internal_node_id":"0.0-3.0-2.0","time_elapsed":923959,"trial_index":7}},"8":{"115":{"trial_type":"AJDnews","premierNews":[1532981578896,1532981579304,1532981601673,1532981616588],"time_elapsed":211235,"firstNews":[1532981578524,1532981580105,1532981586156,1532981600483,1532981616191],"internal_node_id":"0.0-3.0-3.0","alphaNews":[1532981574541,1532981575280,1532981575991,1532981576528,1532981577078,1532981602231],"trial_index":8,"firstForAgainst":["against","for","for","against","against"]},"116":{"trial_type":"AJDnews","premierNews":[1532981621290,1532981625612,1532981633208,1532981660400,1532981662324],"time_elapsed":282711,"firstNews":[1532981639652,1532981642778,1532981670007],"internal_node_id":"0.0-3.0-3.0","alphaNews":[1532981604634,1532981612921,1532981647787,1532981650261,1532981653369,1532981657268,1532981673215],"trial_index":8,"firstForAgainst":["for","for","for"]},"117":{"trial_type":"AJDnews","premierNews":[1532982362684,1532982365891,1532982371180,1532982374075],"time_elapsed":170647,"firstNews":[1532982378932,1532982382477,1532982384155,1532982392060,1532982394068,1532982397443,1532982400643,1532982403643,1532982405500],"internal_node_id":"0.0-3.0-3.0","alphaNews":[1532982345459,1532982354403],"trial_index":8,"firstForAgainst":["for","for","for","for","for","for","for","for","for"]},"118":{"trial_type":"AJDnews","premierNews":[1532981842748,1532981848099,1532981852692,1532981861422,1532981881179,1532981886381],"time_elapsed":620248,"firstNews":[1532981810821,1532981819724,1532981823820,1532981829140,1532981835773],"internal_node_id":"0.0-3.0-3.0","alphaNews":[1532981866548,1532981870037,1532981873092,1532981876483],"trial_index":8,"firstForAgainst":["against","against","against","against","against"]},"119":{"trial_type":"AJDnews","premierNews":[1532983083128,1532983085433,1532983089194,1532983092282,1532983095504,1532983107912,1532983109552,1532983112288,1532983116513],"time_elapsed":1563306,"firstNews":[1532983098270,1532983100648,1532983104887,1532983122360],"internal_node_id":"0.0-3.0-3.0","alphaNews":[1532983072382,1532983076252],"trial_index":8,"firstForAgainst":["for","against","for","against"]},"120":{"trial_type":"AJDnews","premierNews":[1532983198287,1532983212602,1532983220929,1532983232250,1532983234108],"time_elapsed":249507,"firstNews":[1532983202322,1532983218549,1532983235280,1532983237214,1532983238884],"internal_node_id":"0.0-3.0-3.0","alphaNews":[1532983194745,1532983205995,1532983224978,1532983227358,1532983230846],"trial_index":8,"firstForAgainst":["against","for","against","against","for"]},"121":{"trial_type":"AJDnews","premierNews":[1532984081427,1532984103358,1532984114073,1532984129072,1532984131488,1532984134671],"time_elapsed":266358,"firstNews":[1532984087522,1532984107349,1532984110894],"internal_node_id":"0.0-3.0-3.0","alphaNews":[1532984076108,1532984094999,1532984116656,1532984119615,1532984123498,1532984126694],"trial_index":8,"firstForAgainst":["for","for","for"]},"123":{"trial_type":"AJDnews","premierNews":[1532990658151,1532990662679,1532990670164,1532990674503],"time_elapsed":366406,"firstNews":[1532990677331,1532990680397,1532990683429,1532990686595],"internal_node_id":"0.0-3.0-3.0","alphaNews":[1532990635540,1532990641779,1532990646911,1532990652852,1532990703212,1532990707422,1532990711387],"trial_index":8,"firstForAgainst":["for","for","against","for"]},"124":{"trial_type":"AJDnews","premierNews":[1533147760051,1533147765033,1533147766098,1533147768482,1533147769436,1533147770339],"time_elapsed":201869,"firstNews":[1533147772866,1533147773449,1533147776066,1533147777201,1533147778875],"internal_node_id":"0.0-3.0-3.0","alphaNews":[1533147756891,1533147757769,1533147758659,1533147759186],"trial_index":8,"firstForAgainst":["against","against","for","against","against"]},"125":{"trial_type":"AJDnews","premierNews":[1533148285276,1533148291806,1533148299847,1533148307699,1533148313618],"time_elapsed":125650,"firstNews":[1533148287716,1533148295252,1533148301824,1533148310163,1533148315290],"internal_node_id":"0.0-3.0-3.0","alphaNews":[1533148282562,1533148289930,1533148296879,1533148304470,1533148312068],"trial_index":8,"firstForAgainst":["for","against","against","for","against"]},"126":{"trial_type":"AJDnews","premierNews":[1533147879703,1533147882605,1533147886764,1533147904106,1533147906438],"time_elapsed":303063,"firstNews":[1533147889970,1533147892428,1533147894957,1533147911118,1533147918712],"internal_node_id":"0.0-3.0-3.0","alphaNews":[1533147870337,1533147876220,1533147899008,1533147900453,1533147923583],"trial_index":8,"firstForAgainst":["for","for","for","for","against"]},"127":{"trial_type":"AJDnews","premierNews":[1533148598565,1533148601686,1533148604282,1533148608017,1533148609590],"time_elapsed":491557,"firstNews":[1533148598944,1533148602680,1533148605009,1533148608287,1533148610388],"internal_node_id":"0.0-3.0-3.0","alphaNews":[1533148598131,1533148601962,1533148603217,1533148603896,1533148609171],"trial_index":8,"firstForAgainst":["against","for","for","for","against"]},"128":{"trial_type":"AJDnews","premierNews":[1533147692946,1533147695097,1533147698194,1533147709929,1533147718549,1533147720064],"time_elapsed":147214,"firstNews":[1533147700508,1533147703705,1533147705719,1533147715191,1533147717265],"internal_node_id":"0.0-3.0-3.0","alphaNews":[1533147689630,1533147707555,1533147712731,1533147723541],"trial_index":8,"firstForAgainst":["for","against","against","for","against"]},"129":{"trial_type":"AJDnews","premierNews":[1533147826496,1533147830256,1533147832992,1533147836688,1533147842415,1533147845031,1533147851656,1533147872656,1533147876047],"time_elapsed":327839,"firstNews":[1533147802152,1533147813864,1533147881217],"internal_node_id":"0.0-3.0-3.0","alphaNews":[1533147856144,1533147860728,1533147866111],"trial_index":8,"firstForAgainst":["for","against","against"]},"130":{"trial_type":"AJDnews","premierNews":[],"time_elapsed":206972,"firstNews":[],"internal_node_id":"0.0-3.0-3.0","alphaNews":[1533147877364,1533147878334,1533147879228,1533147880106,1533147880604,1533147881050,1533147882378,1533147883062,1533147883726,1533147884362,1533147884992,1533147885630,1533147886200,1533147886850,1533147887368],"trial_index":8,"firstForAgainst":[]},"131":{"trial_type":"AJDnews","premierNews":[1533147794850,1533147817033,1533147843244,1533147889654],"time_elapsed":325742,"firstNews":[1533147785658,1533147809186,1533147836976,1533147857296,1533147885958,1533147903032],"internal_node_id":"0.0-3.0-3.0","alphaNews":[1533147800146,1533147832424,1533147846591,1533147880246,1533147897719],"trial_index":8,"firstForAgainst":["for","for","against","for","against","against"]},"132":{"trial_type":"AJDnews","premierNews":[1533149167540,1533149169288,1533149172485,1533149174891,1533149178965],"time_elapsed":207720,"firstNews":[1533149143002,1533149148472,1533149151180,1533149157220,1533149161305,1533149165678,1533149186319],"internal_node_id":"0.0-3.0-3.0","alphaNews":[1533149127120,1533149134044,1533149190752],"trial_index":8,"firstForAgainst":["against","against","against","for","against","for","against"]},"133":{"trial_type":"AJDnews","premierNews":[1533149306566,1533149311187,1533149314131,1533149342685,1533149346178],"time_elapsed":169611,"firstNews":[1533149324780,1533149327234,1533149330424,1533149333069,1533149334704,1533149351888],"internal_node_id":"0.0-3.0-3.0","alphaNews":[1533149302252,1533149337242,1533149339830,1533149349212],"trial_index":8,"firstForAgainst":["against","for","against","for","for","for"]},"134":{"trial_type":"AJDnews","premierNews":[1533148441346,1533148458395,1533148465204],"time_elapsed":604100,"firstNews":[1533148439640,1533148440314,1533148440889,1533148461306],"internal_node_id":"0.0-3.0-3.0","alphaNews":[1533148443906,1533148446858,1533148448459,1533148450316,1533148452396,1533148454307,1533148456149,1533148463206],"trial_index":8,"firstForAgainst":["for","against","for","against"]},"135":{"trial_type":"AJDnews","premierNews":[1533148327038,1533148350519,1533148362506,1533148376291,1533148382731,1533148391354],"time_elapsed":379996,"firstNews":[1533148336850,1533148339662,1533148347797,1533148371969,1533148387278],"internal_node_id":"0.0-3.0-3.0","alphaNews":[1533148320319,1533148354245,1533148357424,1533148379655],"trial_index":8,"firstForAgainst":["against","for","for","against","for"]},"136":{"trial_type":"AJDnews","premierNews":[1533148925116,1533148938351,1533148962934,1533148979431,1533148996342],"time_elapsed":875329,"firstNews":[1533148929224,1533148943716,1533148962153,1533148981562,1533149003829,1533149009918],"internal_node_id":"0.0-3.0-3.0","alphaNews":[1533148918148,1533148933947,1533148973986,1533148992253],"trial_index":8,"firstForAgainst":["for","against","for","for","against","for"]},"137":{"trial_type":"AJDnews","premierNews":[1533148309313,1533148352170,1533148354376,1533148358667,1533148367109,1533148369219,1533148372403,1533148379764],"time_elapsed":205277,"firstNews":[1533148290327,1533148297665,1533148348634,1533148376075,1533148377879],"internal_node_id":"0.0-3.0-3.0","alphaNews":[1533148302102,1533148362348],"trial_index":8,"firstForAgainst":["for","for","against","against","against"]},"138":{"trial_type":"AJDnews","premierNews":[1533149417838,1533149421183,1533149429178,1533149431441,1533149442357],"time_elapsed":1299346,"firstNews":[1533149412029,1533149415795,1533149432883,1533149436799,1533149440111],"internal_node_id":"0.0-3.0-3.0","alphaNews":[1533149401583,1533149422969,1533149427229,1533149445670,1533149448443],"trial_index":8,"firstForAgainst":["for","for","against","for","against"]},"139":{"trial_type":"AJDnews","premierNews":[],"time_elapsed":50670,"firstNews":[],"internal_node_id":"0.0-3.0-3.0","alphaNews":[1533150141710,1533150141853,1533150141997,1533150142134,1533150142285,1533150142430,1533150142573,1533150142733,1533150142870,1533150143030,1533150143333,1533150143477,1533150143629,1533150143949,1533150144095],"trial_index":8,"firstForAgainst":[]},"140":{"trial_type":"AJDnews","premierNews":[1533149863454,1533149883856,1533149888333,1533149890431,1533149893049,1533149905485],"time_elapsed":165272,"firstNews":[1533149859437,1533149894364,1533149897517,1533149899921,1533149903482],"internal_node_id":"0.0-3.0-3.0","alphaNews":[1533149866176,1533149874260,1533149875766,1533149880342],"trial_index":8,"firstForAgainst":["for","for","against","for","against"]},"141":{"trial_type":"AJDnews","premierNews":[1533149401755,1533149405372,1533149408209,1533149411644,1533149415927],"time_elapsed":204198,"firstNews":[1533149402572,1533149406204,1533149407427,1533149412545,1533149417968],"internal_node_id":"0.0-3.0-3.0","alphaNews":[1533149400834,1533149404472,1533149409068,1533149415081,1533149420781],"trial_index":8,"firstForAgainst":["for","for","for","for","for"]},"142":{"trial_type":"AJDnews","premierNews":[1533149544010,1533149548079,1533149664738,1533149669254,1533149674206,1533149676239],"time_elapsed":239896,"firstNews":[1533149554912,1533149558880,1533149595729,1533149660985],"internal_node_id":"0.0-3.0-3.0","alphaNews":[1533149536488,1533149540149,1533149589855,1533149657455,1533149680027],"trial_index":8,"firstForAgainst":["against","against","against","against"]},"143":{"trial_type":"AJDnews","premierNews":[1533149286225,1533149290760,1533149294331,1533149300077,1533149309539],"time_elapsed":1033067,"firstNews":[1533149315946,1533149321572,1533149324042,1533149326737,1533149333643],"internal_node_id":"0.0-3.0-3.0","alphaNews":[1533149254529,1533149263436,1533149268816,1533149274998,1533149279764],"trial_index":8,"firstForAgainst":["for","against","for","for","against"]},"144":{"trial_type":"AJDnews","premierNews":[1533150339874,1533150357228,1533150359186,1533150360506,1533150363117],"time_elapsed":143599,"firstNews":[1533150344509,1533150346958,1533150364944,1533150366579,1533150368840],"internal_node_id":"0.0-3.0-3.0","alphaNews":[1533150334937,1533150349122,1533150351389,1533150353855,1533150355518],"trial_index":8,"firstForAgainst":["for","for","against","for","for"]},"145":{"trial_type":"AJDnews","premierNews":[1533150014344,1533150016810,1533150025358,1533150027475],"time_elapsed":120149,"firstNews":[1533150021105,1533150022013,1533150024050,1533150028407,1533150029963,1533150031143,1533150032128,1533150032511],"internal_node_id":"0.0-3.0-3.0","alphaNews":[1533150006773,1533150009532,1533150011837],"trial_index":8,"firstForAgainst":["against","against","against","for","for","for","for","against"]},"146":{"trial_type":"AJDnews","premierNews":[],"time_elapsed":444461,"firstNews":[],"internal_node_id":"0.0-3.0-3.0","alphaNews":[1533150043828,1533150048075,1533150051364,1533150055807,1533150058775,1533150062405,1533150065010,1533150067322,1533150071339,1533150074443,1533150077583,1533150080371,1533150083515,1533150085231,1533150089652],"trial_index":8,"firstForAgainst":[]},"147":{"trial_type":"AJDnews","premierNews":[1533152224963,1533152228542,1533152252836,1533152255080,1533152258144,1533152260213],"time_elapsed":127665,"firstNews":[1533152232235,1533152236887,1533152238432,1533152241294,1533152250964],"internal_node_id":"0.0-3.0-3.0","alphaNews":[1533152243616,1533152245527,1533152247206,1533152248448],"trial_index":8,"firstForAgainst":["against","for","for","for","against"]},"148":{"trial_type":"AJDnews","premierNews":[1533152298972,1533152311719,1533152315143,1533152318911],"time_elapsed":269311,"firstNews":[1533152304309,1533152335321,1533152339490,1533152342619,1533152345770,1533152349148],"internal_node_id":"0.0-3.0-3.0","alphaNews":[1533152291228,1533152323304,1533152327856,1533152330416,1533152355788],"trial_index":8,"firstForAgainst":["for","against","against","against","for","for"]},"149":{"trial_type":"AJDnews","premierNews":[1533154108982,1533154119181,1533154161476,1533154167408,1533154171156],"time_elapsed":341494,"firstNews":[1533154132822,1533154138566],"internal_node_id":"0.0-3.0-3.0","alphaNews":[1533154098063,1533154125462,1533154142350,1533154152452,1533154156357,1533154176653,1533154182252,1533154185521],"trial_index":8,"firstForAgainst":["for","against"]},"150":{"trial_type":"AJDnews","premierNews":[1533158106805,1533158110508,1533158121084,1533158123973],"time_elapsed":164429,"firstNews":[1533158102611,1533158104419,1533158129495,1533158131705],"internal_node_id":"0.0-3.0-3.0","alphaNews":[1533158112863,1533158117807,1533158119461,1533158120134,1533158137067,1533158139245,1533158142074],"trial_index":8,"firstForAgainst":["for","against","for","for"]},"151":{"trial_type":"AJDnews","premierNews":[1533233323154,1533233326122,1533233328345],"time_elapsed":198938,"firstNews":[1533233319065,1533233330761,1533233333825,1533233335745,1533233337281],"internal_node_id":"0.0-3.0-3.0","alphaNews":[1533233343149,1533233345106,1533233346866,1533233349480,1533233351834,1533233354449,1533233356977],"trial_index":8,"firstForAgainst":["for","for","for","for","against"]},"152":{"trial_type":"AJDnews","premierNews":[1533233389107,1533233399771,1533233409003,1533233419467,1533233428443],"time_elapsed":273730,"firstNews":[1533233393947,1533233403524,1533233413996,1533233422348,1533233430692],"internal_node_id":"0.0-3.0-3.0","alphaNews":[1533233384644,1533233397156,1533233406508,1533233416795,1533233425412],"trial_index":8,"firstForAgainst":["for","for","against","against","for"]},"153":{"trial_type":"AJDnews","premierNews":[1533235906734,1533235907609,1533235908159,1533235910067,1533235910299,1533235910850,1533235911058],"time_elapsed":72803,"firstNews":[1533235907231,1533235908408,1533235909743,1533235911312],"internal_node_id":"0.0-3.0-3.0","alphaNews":[1533235906082,1533235907879,1533235908993,1533235910578],"trial_index":8,"firstForAgainst":["for","for","against","for"]},"154":{"trial_type":"AJDnews","premierNews":[1533235540596,1533235547684,1533235553180,1533235563043,1533235565827,1533235568273,1533235570065],"time_elapsed":155154,"firstNews":[1533235534568,1533235537472,1533235564476,1533235569123],"internal_node_id":"0.0-3.0-3.0","alphaNews":[1533235555773,1533235559532,1533235561191,1533235567079],"trial_index":8,"firstForAgainst":["against","against","for","for"]},"155":{"trial_type":"AJDnews","premierNews":[1533236592290,1533236592903,1533236593234,1533236594288,1533236595080,1533236595813,1533236596667,1533236597476],"time_elapsed":130689,"firstNews":[1533236591984,1533236593530,1533236594695,1533236596245,1533236597061],"internal_node_id":"0.0-3.0-3.0","alphaNews":[1533236591436,1533236593903],"trial_index":8,"firstForAgainst":["for","for","for","for","for"]},"156":{"trial_type":"AJDnews","premierNews":[1533236425536,1533236435766],"time_elapsed":316910,"firstNews":[1533236412263,1533236438055,1533236449118,1533236452653,1533236456070,1533236459189,1533236462334,1533236464438,1533236467013,1533236468429,1533236471279],"internal_node_id":"0.0-3.0-3.0","alphaNews":[1533236431303,1533236443463],"trial_index":8,"firstForAgainst":["against","for","for","against","against","for","against","against","against","for","for"]},"157":{"trial_type":"AJDnews","premierNews":[1533237095279,1533237102299,1533237105845,1533237111368,1533237112008],"time_elapsed":153752,"firstNews":[1533237097229,1533237098142,1533237099295,1533237100513,1533237106931,1533237108184],"internal_node_id":"0.0-3.0-3.0","alphaNews":[1533237090257,1533237091873,1533237103785,1533237105065],"trial_index":8,"firstForAgainst":["against","against","for","against","for","against"]},"158":{"trial_type":"AJDnews","premierNews":[1533238914481,1533238917096,1533238919784,1533238922340,1533238934494,1533238950807,1533238955863],"time_elapsed":1856006,"firstNews":[1533238907043,1533238909959,1533238937923],"internal_node_id":"0.0-3.0-3.0","alphaNews":[1533238898449,1533238926352,1533238928949,1533238932109,1533238953213],"trial_index":8,"firstForAgainst":["for","against","for"]},"159":{"trial_type":"AJDnews","premierNews":[1533238291857,1533238331225,1533238337857,1533238342225,1533238359833,1533238362434],"time_elapsed":1057461,"firstNews":[1533238297098,1533238343961,1533238346345,1533238359009,1533238361441],"internal_node_id":"0.0-3.0-3.0","alphaNews":[1533238269801,1533238311746,1533238324129,1533238360345],"trial_index":8,"firstForAgainst":["for","against","for","for","against"]}},"9":{"115":{"trial_type":"AJDquestion","time_elapsed":217043,"statementResponse":65,"internal_node_id":"0.0-3.0-4.0","trial_index":9},"116":{"trial_type":"AJDquestion","time_elapsed":293768,"statementResponse":39,"internal_node_id":"0.0-3.0-4.0","trial_index":9},"117":{"trial_type":"AJDquestion","time_elapsed":175695,"statementResponse":76,"internal_node_id":"0.0-3.0-4.0","trial_index":9},"118":{"trial_type":"AJDquestion","time_elapsed":640553,"statementResponse":22,"internal_node_id":"0.0-3.0-4.0","trial_index":9},"119":{"trial_type":"AJDquestion","time_elapsed":1569231,"statementResponse":50,"internal_node_id":"0.0-3.0-4.0","trial_index":9},"120":{"trial_type":"AJDquestion","time_elapsed":258709,"statementResponse":68,"internal_node_id":"0.0-3.0-4.0","trial_index":9},"121":{"trial_type":"AJDquestion","time_elapsed":273496,"statementResponse":2,"internal_node_id":"0.0-3.0-4.0","trial_index":9},"123":{"trial_type":"AJDquestion","time_elapsed":380826,"statementResponse":40,"internal_node_id":"0.0-3.0-4.0","trial_index":9},"124":{"trial_type":"AJDquestion","time_elapsed":213439,"statementResponse":1,"internal_node_id":"0.0-3.0-4.0","trial_index":9},"125":{"trial_type":"AJDquestion","time_elapsed":130826,"statementResponse":1,"internal_node_id":"0.0-3.0-4.0","trial_index":9},"126":{"trial_type":"AJDquestion","time_elapsed":313510,"statementResponse":71,"internal_node_id":"0.0-3.0-4.0","trial_index":9},"127":{"trial_type":"AJDquestion","time_elapsed":501423,"statementResponse":1,"internal_node_id":"0.0-3.0-4.0","trial_index":9},"128":{"trial_type":"AJDquestion","time_elapsed":151957,"statementResponse":39,"internal_node_id":"0.0-3.0-4.0","trial_index":9},"129":{"trial_type":"AJDquestion","time_elapsed":350114,"statementResponse":17,"internal_node_id":"0.0-3.0-4.0","trial_index":9},"130":{"trial_type":"AJDquestion","time_elapsed":211644,"statementResponse":50,"internal_node_id":"0.0-3.0-4.0","trial_index":9},"131":{"trial_type":"AJDquestion","time_elapsed":333902,"statementResponse":6,"internal_node_id":"0.0-3.0-4.0","trial_index":9},"132":{"trial_type":"AJDquestion","time_elapsed":213192,"statementResponse":9,"internal_node_id":"0.0-3.0-4.0","trial_index":9},"133":{"trial_type":"AJDquestion","time_elapsed":175860,"statementResponse":63,"internal_node_id":"0.0-3.0-4.0","trial_index":9},"134":{"trial_type":"AJDquestion","time_elapsed":626787,"statementResponse":38,"internal_node_id":"0.0-3.0-4.0","trial_index":9},"135":{"trial_type":"AJDquestion","time_elapsed":391819,"statementResponse":77,"internal_node_id":"0.0-3.0-4.0","trial_index":9},"136":{"trial_type":"AJDquestion","time_elapsed":888384,"statementResponse":38,"internal_node_id":"0.0-3.0-4.0","trial_index":9},"137":{"trial_type":"AJDquestion","time_elapsed":215323,"statementResponse":69,"internal_node_id":"0.0-3.0-4.0","trial_index":9},"138":{"trial_type":"AJDquestion","time_elapsed":1311160,"statementResponse":38,"internal_node_id":"0.0-3.0-4.0","trial_index":9},"139":{"trial_type":"AJDquestion","time_elapsed":55928,"statementResponse":63,"internal_node_id":"0.0-3.0-4.0","trial_index":9},"140":{"trial_type":"AJDquestion","time_elapsed":171643,"statementResponse":32,"internal_node_id":"0.0-3.0-4.0","trial_index":9},"141":{"trial_type":"AJDquestion","time_elapsed":346510,"statementResponse":99,"internal_node_id":"0.0-3.0-4.0","trial_index":9},"142":{"trial_type":"AJDquestion","time_elapsed":250971,"statementResponse":76,"internal_node_id":"0.0-3.0-4.0","trial_index":9},"143":{"trial_type":"AJDquestion","time_elapsed":1042460,"statementResponse":42,"internal_node_id":"0.0-3.0-4.0","trial_index":9},"144":{"trial_type":"AJDquestion","time_elapsed":149791,"statementResponse":60,"internal_node_id":"0.0-3.0-4.0","trial_index":9},"145":{"trial_type":"AJDquestion","time_elapsed":124975,"statementResponse":60,"internal_node_id":"0.0-3.0-4.0","trial_index":9},"146":{"trial_type":"AJDquestion","time_elapsed":483992,"statementResponse":79,"internal_node_id":"0.0-3.0-4.0","trial_index":9},"147":{"trial_type":"AJDquestion","time_elapsed":135847,"statementResponse":34,"internal_node_id":"0.0-3.0-4.0","trial_index":9},"148":{"trial_type":"AJDquestion","time_elapsed":301580,"statementResponse":22,"internal_node_id":"0.0-3.0-4.0","trial_index":9},"149":{"trial_type":"AJDquestion","time_elapsed":349419,"statementResponse":2,"internal_node_id":"0.0-3.0-4.0","trial_index":9},"150":{"trial_type":"AJDquestion","time_elapsed":169745,"statementResponse":90,"internal_node_id":"0.0-3.0-4.0","trial_index":9},"151":{"trial_type":"AJDquestion","time_elapsed":206194,"statementResponse":26,"internal_node_id":"0.0-3.0-4.0","trial_index":9},"152":{"trial_type":"AJDquestion","time_elapsed":280235,"statementResponse":77,"internal_node_id":"0.0-3.0-4.0","trial_index":9},"153":{"trial_type":"AJDquestion","time_elapsed":77048,"statementResponse":41,"internal_node_id":"0.0-3.0-4.0","trial_index":9},"154":{"trial_type":"AJDquestion","time_elapsed":163051,"statementResponse":1,"internal_node_id":"0.0-3.0-4.0","trial_index":9},"155":{"trial_type":"AJDquestion","time_elapsed":143152,"statementResponse":100,"internal_node_id":"0.0-3.0-4.0","trial_index":9},"156":{"trial_type":"AJDquestion","time_elapsed":330080,"statementResponse":62,"internal_node_id":"0.0-3.0-4.0","trial_index":9},"157":{"trial_type":"AJDquestion","time_elapsed":162801,"statementResponse":37,"internal_node_id":"0.0-3.0-4.0","trial_index":9},"158":{"trial_type":"AJDquestion","time_elapsed":1863142,"statementResponse":57,"internal_node_id":"0.0-3.0-4.0","trial_index":9},"159":{"trial_type":"AJDquestion","time_elapsed":1066365,"statementResponse":22,"internal_node_id":"0.0-3.0-4.0","trial_index":9}},"10":{"115":{"trial_type":"call-function","time_elapsed":218045,"internal_node_id":"0.0-3.0-5.0","trial_index":10},"116":{"trial_type":"call-function","time_elapsed":294769,"internal_node_id":"0.0-3.0-5.0","trial_index":10},"117":{"trial_type":"call-function","time_elapsed":176697,"internal_node_id":"0.0-3.0-5.0","trial_index":10},"118":{"trial_type":"call-function","time_elapsed":641553,"internal_node_id":"0.0-3.0-5.0","trial_index":10},"119":{"trial_type":"call-function","time_elapsed":1570231,"internal_node_id":"0.0-3.0-5.0","trial_index":10},"120":{"trial_type":"call-function","time_elapsed":259709,"internal_node_id":"0.0-3.0-5.0","trial_index":10},"121":{"trial_type":"call-function","time_elapsed":274498,"internal_node_id":"0.0-3.0-5.0","trial_index":10},"123":{"trial_type":"call-function","time_elapsed":381826,"internal_node_id":"0.0-3.0-5.0","trial_index":10},"124":{"trial_type":"call-function","time_elapsed":214441,"internal_node_id":"0.0-3.0-5.0","trial_index":10},"125":{"trial_type":"call-function","time_elapsed":131830,"internal_node_id":"0.0-3.0-5.0","trial_index":10},"126":{"trial_type":"call-function","time_elapsed":314510,"internal_node_id":"0.0-3.0-5.0","trial_index":10},"127":{"trial_type":"call-function","time_elapsed":502423,"internal_node_id":"0.0-3.0-5.0","trial_index":10},"128":{"trial_type":"call-function","time_elapsed":152958,"internal_node_id":"0.0-3.0-5.0","trial_index":10},"129":{"trial_type":"call-function","time_elapsed":351115,"internal_node_id":"0.0-3.0-5.0","trial_index":10},"130":{"trial_type":"call-function","time_elapsed":212646,"internal_node_id":"0.0-3.0-5.0","trial_index":10},"131":{"trial_type":"call-function","time_elapsed":334902,"internal_node_id":"0.0-3.0-5.0","trial_index":10},"132":{"trial_type":"call-function","time_elapsed":214191,"internal_node_id":"0.0-3.0-5.0","trial_index":10},"133":{"trial_type":"call-function","time_elapsed":176864,"internal_node_id":"0.0-3.0-5.0","trial_index":10},"134":{"trial_type":"call-function","time_elapsed":627791,"internal_node_id":"0.0-3.0-5.0","trial_index":10},"135":{"trial_type":"call-function","time_elapsed":392819,"internal_node_id":"0.0-3.0-5.0","trial_index":10},"136":{"trial_type":"call-function","time_elapsed":889387,"internal_node_id":"0.0-3.0-5.0","trial_index":10},"137":{"trial_type":"call-function","time_elapsed":216323,"internal_node_id":"0.0-3.0-5.0","trial_index":10},"138":{"trial_type":"call-function","time_elapsed":1312161,"internal_node_id":"0.0-3.0-5.0","trial_index":10},"139":{"trial_type":"call-function","time_elapsed":56928,"internal_node_id":"0.0-3.0-5.0","trial_index":10},"140":{"trial_type":"call-function","time_elapsed":172645,"internal_node_id":"0.0-3.0-5.0","trial_index":10},"141":{"trial_type":"call-function","time_elapsed":347513,"internal_node_id":"0.0-3.0-5.0","trial_index":10},"142":{"trial_type":"call-function","time_elapsed":251970,"internal_node_id":"0.0-3.0-5.0","trial_index":10},"143":{"trial_type":"call-function","time_elapsed":1043461,"internal_node_id":"0.0-3.0-5.0","trial_index":10},"144":{"trial_type":"call-function","time_elapsed":150791,"internal_node_id":"0.0-3.0-5.0","trial_index":10},"145":{"trial_type":"call-function","time_elapsed":125976,"internal_node_id":"0.0-3.0-5.0","trial_index":10},"146":{"trial_type":"call-function","time_elapsed":484995,"internal_node_id":"0.0-3.0-5.0","trial_index":10},"147":{"trial_type":"call-function","time_elapsed":136847,"internal_node_id":"0.0-3.0-5.0","trial_index":10},"148":{"trial_type":"call-function","time_elapsed":302581,"internal_node_id":"0.0-3.0-5.0","trial_index":10},"149":{"trial_type":"call-function","time_elapsed":350420,"internal_node_id":"0.0-3.0-5.0","trial_index":10},"150":{"trial_type":"call-function","time_elapsed":170746,"internal_node_id":"0.0-3.0-5.0","trial_index":10},"151":{"trial_type":"call-function","time_elapsed":207199,"internal_node_id":"0.0-3.0-5.0","trial_index":10},"152":{"trial_type":"call-function","time_elapsed":281235,"internal_node_id":"0.0-3.0-5.0","trial_index":10},"153":{"trial_type":"call-function","time_elapsed":78050,"internal_node_id":"0.0-3.0-5.0","trial_index":10},"154":{"trial_type":"call-function","time_elapsed":164052,"internal_node_id":"0.0-3.0-5.0","trial_index":10},"155":{"trial_type":"call-function","time_elapsed":144151,"internal_node_id":"0.0-3.0-5.0","trial_index":10},"156":{"trial_type":"call-function","time_elapsed":331081,"internal_node_id":"0.0-3.0-5.0","trial_index":10},"157":{"trial_type":"call-function","time_elapsed":163802,"internal_node_id":"0.0-3.0-5.0","trial_index":10},"158":{"trial_type":"call-function","time_elapsed":1864142,"internal_node_id":"0.0-3.0-5.0","trial_index":10},"159":{"trial_type":"call-function","time_elapsed":1067367,"internal_node_id":"0.0-3.0-5.0","trial_index":10}},"11":{"115":{"trial_type":"AJDquestion","time_elapsed":223276,"statementResponse":56,"internal_node_id":"0.0-4.0-0.0","trial_index":11},"116":{"trial_type":"AJDquestion","time_elapsed":306620,"statementResponse":24,"internal_node_id":"0.0-4.0-0.0","trial_index":11},"117":{"trial_type":"AJDquestion","time_elapsed":183960,"statementResponse":77,"internal_node_id":"0.0-4.0-0.0","trial_index":11},"118":{"trial_type":"AJDquestion","time_elapsed":648314,"statementResponse":76,"internal_node_id":"0.0-4.0-0.0","trial_index":11},"119":{"trial_type":"AJDquestion","time_elapsed":1577157,"statementResponse":28,"internal_node_id":"0.0-4.0-0.0","trial_index":11},"120":{"trial_type":"AJDquestion","time_elapsed":266790,"statementResponse":63,"internal_node_id":"0.0-4.0-0.0","trial_index":11},"121":{"trial_type":"AJDquestion","time_elapsed":281109,"statementResponse":50,"internal_node_id":"0.0-4.0-0.0","trial_index":11},"123":{"trial_type":"AJDquestion","time_elapsed":392449,"statementResponse":76,"internal_node_id":"0.0-4.0-0.0","trial_index":11},"124":{"trial_type":"AJDquestion","time_elapsed":229185,"statementResponse":50,"internal_node_id":"0.0-4.0-0.0","trial_index":11},"125":{"trial_type":"AJDquestion","time_elapsed":135164,"statementResponse":100,"internal_node_id":"0.0-4.0-0.0","trial_index":11},"126":{"trial_type":"AJDquestion","time_elapsed":322154,"statementResponse":91,"internal_node_id":"0.0-4.0-0.0","trial_index":11},"127":{"trial_type":"AJDquestion","time_elapsed":505939,"statementResponse":49,"internal_node_id":"0.0-4.0-0.0","trial_index":11},"128":{"trial_type":"AJDquestion","time_elapsed":156689,"statementResponse":91,"internal_node_id":"0.0-4.0-0.0","trial_index":11},"129":{"trial_type":"AJDquestion","time_elapsed":367121,"statementResponse":69,"internal_node_id":"0.0-4.0-0.0","trial_index":11},"130":{"trial_type":"AJDquestion","time_elapsed":215962,"statementResponse":50,"internal_node_id":"0.0-4.0-0.0","trial_index":11},"131":{"trial_type":"AJDquestion","time_elapsed":355213,"statementResponse":13,"internal_node_id":"0.0-4.0-0.0","trial_index":11},"132":{"trial_type":"AJDquestion","time_elapsed":226181,"statementResponse":40,"internal_node_id":"0.0-4.0-0.0","trial_index":11},"133":{"trial_type":"AJDquestion","time_elapsed":182723,"statementResponse":68,"internal_node_id":"0.0-4.0-0.0","trial_index":11},"134":{"trial_type":"AJDquestion","time_elapsed":637119,"statementResponse":20,"internal_node_id":"0.0-4.0-0.0","trial_index":11},"135":{"trial_type":"AJDquestion","time_elapsed":404201,"statementResponse":70,"internal_node_id":"0.0-4.0-0.0","trial_index":11},"136":{"trial_type":"AJDquestion","time_elapsed":903666,"statementResponse":57,"internal_node_id":"0.0-4.0-0.0","trial_index":11},"137":{"trial_type":"AJDquestion","time_elapsed":225473,"statementResponse":54,"internal_node_id":"0.0-4.0-0.0","trial_index":11},"138":{"trial_type":"AJDquestion","time_elapsed":1317182,"statementResponse":1,"internal_node_id":"0.0-4.0-0.0","trial_index":11},"139":{"trial_type":"AJDquestion","time_elapsed":60744,"statementResponse":63,"internal_node_id":"0.0-4.0-0.0","trial_index":11},"140":{"trial_type":"AJDquestion","time_elapsed":177641,"statementResponse":18,"internal_node_id":"0.0-4.0-0.0","trial_index":11},"141":{"trial_type":"AJDquestion","time_elapsed":353361,"statementResponse":50,"internal_node_id":"0.0-4.0-0.0","trial_index":11},"142":{"trial_type":"AJDquestion","time_elapsed":258651,"statementResponse":76,"internal_node_id":"0.0-4.0-0.0","trial_index":11},"143":{"trial_type":"AJDquestion","time_elapsed":1054961,"statementResponse":60,"internal_node_id":"0.0-4.0-0.0","trial_index":11},"144":{"trial_type":"AJDquestion","time_elapsed":155643,"statementResponse":56,"internal_node_id":"0.0-4.0-0.0","trial_index":11},"145":{"trial_type":"AJDquestion","time_elapsed":130991,"statementResponse":80,"internal_node_id":"0.0-4.0-0.0","trial_index":11},"146":{"trial_type":"AJDquestion","time_elapsed":493165,"statementResponse":50,"internal_node_id":"0.0-4.0-0.0","trial_index":11},"147":{"trial_type":"AJDquestion","time_elapsed":144042,"statementResponse":59,"internal_node_id":"0.0-4.0-0.0","trial_index":11},"148":{"trial_type":"AJDquestion","time_elapsed":311357,"statementResponse":70,"internal_node_id":"0.0-4.0-0.0","trial_index":11},"149":{"trial_type":"AJDquestion","time_elapsed":355915,"statementResponse":68,"internal_node_id":"0.0-4.0-0.0","trial_index":11},"150":{"trial_type":"AJDquestion","time_elapsed":175522,"statementResponse":99,"internal_node_id":"0.0-4.0-0.0","trial_index":11},"151":{"trial_type":"AJDquestion","time_elapsed":212820,"statementResponse":100,"internal_node_id":"0.0-4.0-0.0","trial_index":11},"152":{"trial_type":"AJDquestion","time_elapsed":288402,"statementResponse":65,"internal_node_id":"0.0-4.0-0.0","trial_index":11},"153":{"trial_type":"AJDquestion","time_elapsed":80932,"statementResponse":43,"internal_node_id":"0.0-4.0-0.0","trial_index":11},"154":{"trial_type":"AJDquestion","time_elapsed":171139,"statementResponse":65,"internal_node_id":"0.0-4.0-0.0","trial_index":11},"155":{"trial_type":"AJDquestion","time_elapsed":153266,"statementResponse":34,"internal_node_id":"0.0-4.0-0.0","trial_index":11},"156":{"trial_type":"AJDquestion","time_elapsed":337785,"statementResponse":99,"internal_node_id":"0.0-4.0-0.0","trial_index":11},"157":{"trial_type":"AJDquestion","time_elapsed":169574,"statementResponse":73,"internal_node_id":"0.0-4.0-0.0","trial_index":11},"158":{"trial_type":"AJDquestion","time_elapsed":1872998,"statementResponse":70,"internal_node_id":"0.0-4.0-0.0","trial_index":11},"159":{"trial_type":"AJDquestion","time_elapsed":1074879,"statementResponse":97,"internal_node_id":"0.0-4.0-0.0","trial_index":11}},"12":{"115":{"rt":6451,"trial_type":"survey-likert","responses":[42,32,23,14],"internal_node_id":"0.0-4.0-1.0","time_elapsed":230744,"trial_index":12},"116":{"rt":11891,"trial_type":"survey-likert","responses":[62,39,1,1],"internal_node_id":"0.0-4.0-1.0","time_elapsed":319557,"trial_index":12},"117":{"rt":7682,"trial_type":"survey-likert","responses":[76,48,40,56],"internal_node_id":"0.0-4.0-1.0","time_elapsed":192659,"trial_index":12},"118":{"rt":22388,"trial_type":"survey-likert","responses":[64,38,21,35],"internal_node_id":"0.0-4.0-1.0","time_elapsed":671733,"trial_index":12},"119":{"rt":13935,"trial_type":"survey-likert","responses":[15,7,1,6],"internal_node_id":"0.0-4.0-1.0","time_elapsed":1592106,"trial_index":12},"120":{"rt":15040,"trial_type":"survey-likert","responses":[30,51,23,37],"internal_node_id":"0.0-4.0-1.0","time_elapsed":282851,"trial_index":12},"121":{"rt":14149,"trial_type":"survey-likert","responses":[39,26,39,64],"internal_node_id":"0.0-4.0-1.0","time_elapsed":296290,"trial_index":12},"123":{"rt":16892,"trial_type":"survey-likert","responses":[62,12,14,29],"internal_node_id":"0.0-4.0-1.0","time_elapsed":410432,"trial_index":12},"124":{"rt":13683,"trial_type":"survey-likert","responses":[38,39,63,38],"internal_node_id":"0.0-4.0-1.0","time_elapsed":243914,"trial_index":12},"125":{"rt":10136,"trial_type":"survey-likert","responses":[78,22,38,38],"internal_node_id":"0.0-4.0-1.0","time_elapsed":146328,"trial_index":12},"126":{"rt":20088,"trial_type":"survey-likert","responses":[63,38,39,13],"internal_node_id":"0.0-4.0-1.0","time_elapsed":343278,"trial_index":12},"127":{"rt":5538,"trial_type":"survey-likert","responses":[1,1,100,100],"internal_node_id":"0.0-4.0-1.0","time_elapsed":512488,"trial_index":12},"128":{"rt":18561,"trial_type":"survey-likert","responses":[84,49,63,60],"internal_node_id":"0.0-4.0-1.0","time_elapsed":176271,"trial_index":12},"129":{"rt":26293,"trial_type":"survey-likert","responses":[37,10,39,60],"internal_node_id":"0.0-4.0-1.0","time_elapsed":394454,"trial_index":12},"130":{"rt":6106,"trial_type":"survey-likert","responses":[12,12,13,13],"internal_node_id":"0.0-4.0-1.0","time_elapsed":223180,"trial_index":12},"131":{"rt":22465,"trial_type":"survey-likert","responses":[88,57,1,62],"internal_node_id":"0.0-4.0-1.0","time_elapsed":378696,"trial_index":12},"132":{"rt":11963,"trial_type":"survey-likert","responses":[39,34,1,17],"internal_node_id":"0.0-4.0-1.0","time_elapsed":239163,"trial_index":12},"133":{"rt":10105,"trial_type":"survey-likert","responses":[37,18,1,23],"internal_node_id":"0.0-4.0-1.0","time_elapsed":193849,"trial_index":12},"134":{"rt":51920,"trial_type":"survey-likert","responses":[49,1,5,11],"internal_node_id":"0.0-4.0-1.0","time_elapsed":690064,"trial_index":12},"135":{"rt":15650,"trial_type":"survey-likert","responses":[63,37,59,48],"internal_node_id":"0.0-4.0-1.0","time_elapsed":420901,"trial_index":12},"136":{"rt":24913,"trial_type":"survey-likert","responses":[22,18,38,51],"internal_node_id":"0.0-4.0-1.0","time_elapsed":929671,"trial_index":12},"137":{"rt":15175,"trial_type":"survey-likert","responses":[15,38,39,62],"internal_node_id":"0.0-4.0-1.0","time_elapsed":241663,"trial_index":12},"138":{"rt":8876,"trial_type":"survey-likert","responses":[100,65,1,1],"internal_node_id":"0.0-4.0-1.0","time_elapsed":1327071,"trial_index":12},"139":{"rt":4409,"trial_type":"survey-likert","responses":[53,59,60,57],"internal_node_id":"0.0-4.0-1.0","time_elapsed":66172,"trial_index":12},"140":{"rt":10196,"trial_type":"survey-likert","responses":[85,56,14,8],"internal_node_id":"0.0-4.0-1.0","time_elapsed":188866,"trial_index":12},"141":{"rt":11349,"trial_type":"survey-likert","responses":[36,37,66,36],"internal_node_id":"0.0-4.0-1.0","time_elapsed":365849,"trial_index":12},"142":{"rt":13213,"trial_type":"survey-likert","responses":[63,51,66,62],"internal_node_id":"0.0-4.0-1.0","time_elapsed":272909,"trial_index":12},"143":{"rt":13786,"trial_type":"survey-likert","responses":[39,14,62,40],"internal_node_id":"0.0-4.0-1.0","time_elapsed":1069833,"trial_index":12},"144":{"rt":8602,"trial_type":"survey-likert","responses":[14,37,13,37],"internal_node_id":"0.0-4.0-1.0","time_elapsed":165288,"trial_index":12},"145":{"rt":8523,"trial_type":"survey-likert","responses":[64,44,47,64],"internal_node_id":"0.0-4.0-1.0","time_elapsed":140533,"trial_index":12},"146":{"rt":12446,"trial_type":"survey-likert","responses":[9,10,28,23],"internal_node_id":"0.0-4.0-1.0","time_elapsed":506663,"trial_index":12},"147":{"rt":8767,"trial_type":"survey-likert","responses":[27,23,38,44],"internal_node_id":"0.0-4.0-1.0","time_elapsed":153827,"trial_index":12},"148":{"rt":17360,"trial_type":"survey-likert","responses":[71,38,19,17],"internal_node_id":"0.0-4.0-1.0","time_elapsed":329741,"trial_index":12},"149":{"rt":11680,"trial_type":"survey-likert","responses":[38,13,36,14],"internal_node_id":"0.0-4.0-1.0","time_elapsed":368656,"trial_index":12},"150":{"rt":11636,"trial_type":"survey-likert","responses":[86,63,38,89],"internal_node_id":"0.0-4.0-1.0","time_elapsed":188176,"trial_index":12},"151":{"rt":10216,"trial_type":"survey-likert","responses":[88,59,67,62],"internal_node_id":"0.0-4.0-1.0","time_elapsed":224054,"trial_index":12},"152":{"rt":12805,"trial_type":"survey-likert","responses":[63,40,34,34],"internal_node_id":"0.0-4.0-1.0","time_elapsed":302221,"trial_index":12},"153":{"rt":7684,"trial_type":"survey-likert","responses":[16,51,24,34],"internal_node_id":"0.0-4.0-1.0","time_elapsed":89636,"trial_index":12},"154":{"rt":14289,"trial_type":"survey-likert","responses":[63,64,38,38],"internal_node_id":"0.0-4.0-1.0","time_elapsed":186456,"trial_index":12},"155":{"rt":12761,"trial_type":"survey-likert","responses":[40,20,11,6],"internal_node_id":"0.0-4.0-1.0","time_elapsed":167041,"trial_index":12},"156":{"rt":10665,"trial_type":"survey-likert","responses":[89,64,62,14],"internal_node_id":"0.0-4.0-1.0","time_elapsed":349467,"trial_index":12},"157":{"rt":10879,"trial_type":"survey-likert","responses":[70,27,80,13],"internal_node_id":"0.0-4.0-1.0","time_elapsed":181463,"trial_index":12},"158":{"rt":6514,"trial_type":"survey-likert","responses":[44,23,15,29],"internal_node_id":"0.0-4.0-1.0","time_elapsed":1880563,"trial_index":12},"159":{"rt":22275,"trial_type":"survey-likert","responses":[100,53,1,100],"internal_node_id":"0.0-4.0-1.0","time_elapsed":1098168,"trial_index":12}},"13":{"115":{"rt":7737,"trial_type":"survey-likert","responses":[29,51],"internal_node_id":"0.0-4.0-2.0","time_elapsed":239488,"trial_index":13},"116":{"rt":7323,"trial_type":"survey-likert","responses":[52,1],"internal_node_id":"0.0-4.0-2.0","time_elapsed":327910,"trial_index":13},"117":{"rt":4699,"trial_type":"survey-likert","responses":[21,52],"internal_node_id":"0.0-4.0-2.0","time_elapsed":198367,"trial_index":13},"118":{"rt":21344,"trial_type":"sur